id,trials,task,level,n,rt,acc
001SSMS,1,MS,easy,3,NA,1
001SSMS,1,MS,medium,4,NA,0.8
001SSMS,1,MS,hard,4,NA,0.5714285714285714
001SSMS,2,MS,easy,3,NA,1
001SSMS,2,MS,medium,5,NA,1
001SSMS,2,MS,hard,5,NA,0.7142857142857143
001SSMS,3,MS,easy,3,NA,1
001SSMS,3,MS,medium,5,NA,1
001SSMS,3,MS,hard,7,NA,1
001SSMS,4,MS,easy,3,NA,1
001SSMS,4,MS,medium,5,NA,1
001SSMS,4,MS,hard,7,NA,1
001SSMS,5,MS,easy,2,NA,0.6666666666666666
001SSMS,5,MS,medium,5,NA,1
001SSMS,5,MS,hard,5,NA,0.7142857142857143
001SSMS,6,MS,easy,3,NA,1
001SSMS,6,MS,medium,5,NA,1
001SSMS,6,MS,hard,6,NA,0.8571428571428571
001SSMS,7,MS,easy,3,NA,1
001SSMS,7,MS,medium,5,NA,1
001SSMS,7,MS,hard,6,NA,0.8571428571428571
001SSMS,8,MS,easy,3,NA,1
001SSMS,8,MS,medium,5,NA,1
001SSMS,8,MS,hard,7,NA,1
001SSMS,9,MS,easy,3,NA,1
001SSMS,9,MS,medium,5,NA,1
001SSMS,9,MS,hard,5,NA,0.7142857142857143
001SSMS,10,MS,easy,3,NA,1
001SSMS,10,MS,medium,5,NA,1
001SSMS,10,MS,hard,6,NA,0.8571428571428571
001SSMS,11,MS,easy,2,NA,0.6666666666666666
001SSMS,11,MS,medium,5,NA,1
001SSMS,11,MS,hard,4,NA,0.5714285714285714
001SSMS,12,MS,easy,2,NA,0.6666666666666666
001SSMS,12,MS,medium,5,NA,1
001SSMS,12,MS,hard,7,NA,1
001SSMS,13,MS,easy,3,NA,1
001SSMS,13,MS,medium,5,NA,1
001SSMS,13,MS,hard,4,NA,0.5714285714285714
001SSMS,14,MS,easy,3,NA,1
001SSMS,14,MS,medium,5,NA,1
001SSMS,14,MS,hard,7,NA,1
001SSMS,15,MS,easy,0,NA,0
001SSMS,15,MS,medium,5,NA,1
001SSMS,15,MS,hard,7,NA,1
001SSMS,16,MS,easy,3,NA,1
001SSMS,16,MS,medium,5,NA,1
001SSMS,16,MS,hard,7,NA,1
003SSKS,1,MS,easy,3,NA,1
003SSKS,1,MS,medium,4,NA,0.8
003SSKS,1,MS,hard,5,NA,0.7142857142857143
003SSKS,2,MS,easy,3,NA,1
003SSKS,2,MS,medium,5,NA,1
003SSKS,2,MS,hard,5,NA,0.7142857142857143
003SSKS,3,MS,easy,3,NA,1
003SSKS,3,MS,medium,4,NA,0.8
003SSKS,3,MS,hard,4,NA,0.5714285714285714
003SSKS,4,MS,easy,3,NA,1
003SSKS,4,MS,medium,3,NA,0.6
003SSKS,4,MS,hard,2,NA,0.2857142857142857
003SSKS,5,MS,easy,3,NA,1
003SSKS,5,MS,medium,4,NA,0.8
003SSKS,5,MS,hard,5,NA,0.7142857142857143
003SSKS,6,MS,easy,3,NA,1
003SSKS,6,MS,medium,4,NA,0.8
003SSKS,6,MS,hard,3,NA,0.42857142857142855
003SSKS,7,MS,easy,3,NA,1
003SSKS,7,MS,medium,5,NA,1
003SSKS,7,MS,hard,3,NA,0.42857142857142855
003SSKS,8,MS,easy,3,NA,1
003SSKS,8,MS,medium,5,NA,1
003SSKS,8,MS,hard,3,NA,0.42857142857142855
003SSKS,9,MS,easy,3,NA,1
003SSKS,9,MS,medium,4,NA,0.8
003SSKS,9,MS,hard,4,NA,0.5714285714285714
003SSKS,10,MS,easy,3,NA,1
003SSKS,10,MS,medium,5,NA,1
003SSKS,10,MS,hard,2,NA,0.2857142857142857
003SSKS,11,MS,easy,3,NA,1
003SSKS,11,MS,medium,4,NA,0.8
003SSKS,11,MS,hard,4,NA,0.5714285714285714
003SSKS,12,MS,easy,3,NA,1
003SSKS,12,MS,medium,3,NA,0.6
003SSKS,12,MS,hard,4,NA,0.5714285714285714
003SSKS,13,MS,easy,3,NA,1
003SSKS,13,MS,medium,3,NA,0.6
003SSKS,13,MS,hard,4,NA,0.5714285714285714
003SSKS,14,MS,easy,3,NA,1
003SSKS,14,MS,medium,4,NA,0.8
003SSKS,14,MS,hard,3,NA,0.42857142857142855
003SSKS,15,MS,easy,3,NA,1
003SSKS,15,MS,medium,4,NA,0.8
003SSKS,15,MS,hard,3,NA,0.42857142857142855
003SSKS,16,MS,easy,3,NA,1
003SSKS,16,MS,medium,2,NA,0.4
003SSKS,16,MS,hard,4,NA,0.5714285714285714
004SSDR,1,MS,easy,3,NA,1
004SSDR,1,MS,medium,5,NA,1
004SSDR,1,MS,hard,5,NA,0.7142857142857143
004SSDR,2,MS,easy,3,NA,1
004SSDR,2,MS,medium,5,NA,1
004SSDR,2,MS,hard,7,NA,1
004SSDR,3,MS,easy,3,NA,1
004SSDR,3,MS,medium,5,NA,1
004SSDR,3,MS,hard,6,NA,0.8571428571428571
004SSDR,4,MS,easy,3,NA,1
004SSDR,4,MS,medium,5,NA,1
004SSDR,4,MS,hard,7,NA,1
004SSDR,5,MS,easy,3,NA,1
004SSDR,5,MS,medium,5,NA,1
004SSDR,5,MS,hard,6,NA,0.8571428571428571
004SSDR,6,MS,easy,3,NA,1
004SSDR,6,MS,medium,5,NA,1
004SSDR,6,MS,hard,6,NA,0.8571428571428571
004SSDR,7,MS,easy,2,NA,0.6666666666666666
004SSDR,7,MS,medium,4,NA,0.8
004SSDR,7,MS,hard,6,NA,0.8571428571428571
004SSDR,8,MS,easy,3,NA,1
004SSDR,8,MS,medium,5,NA,1
004SSDR,8,MS,hard,6,NA,0.8571428571428571
004SSDR,9,MS,easy,3,NA,1
004SSDR,9,MS,medium,5,NA,1
004SSDR,9,MS,hard,5,NA,0.7142857142857143
004SSDR,10,MS,easy,3,NA,1
004SSDR,10,MS,medium,5,NA,1
004SSDR,10,MS,hard,5,NA,0.7142857142857143
004SSDR,11,MS,easy,3,NA,1
004SSDR,11,MS,medium,5,NA,1
004SSDR,11,MS,hard,4,NA,0.5714285714285714
004SSDR,12,MS,easy,3,NA,1
004SSDR,12,MS,medium,5,NA,1
004SSDR,12,MS,hard,6,NA,0.8571428571428571
004SSDR,13,MS,easy,3,NA,1
004SSDR,13,MS,medium,4,NA,0.8
004SSDR,13,MS,hard,6,NA,0.8571428571428571
004SSDR,14,MS,easy,3,NA,1
004SSDR,14,MS,medium,5,NA,1
004SSDR,14,MS,hard,6,NA,0.8571428571428571
004SSDR,15,MS,easy,3,NA,1
004SSDR,15,MS,medium,5,NA,1
004SSDR,15,MS,hard,4,NA,0.5714285714285714
004SSDR,16,MS,easy,3,NA,1
004SSDR,16,MS,medium,5,NA,1
004SSDR,16,MS,hard,4,NA,0.5714285714285714
005SSDR,1,MS,easy,3,NA,1
005SSDR,1,MS,medium,5,NA,1
005SSDR,1,MS,hard,6,NA,0.8571428571428571
005SSDR,2,MS,easy,3,NA,1
005SSDR,2,MS,medium,4,NA,0.8
005SSDR,2,MS,hard,7,NA,1
005SSDR,3,MS,easy,3,NA,1
005SSDR,3,MS,medium,5,NA,1
005SSDR,3,MS,hard,6,NA,0.8571428571428571
005SSDR,4,MS,easy,3,NA,1
005SSDR,4,MS,medium,5,NA,1
005SSDR,4,MS,hard,6,NA,0.8571428571428571
005SSDR,5,MS,easy,3,NA,1
005SSDR,5,MS,medium,5,NA,1
005SSDR,5,MS,hard,5,NA,0.7142857142857143
005SSDR,6,MS,easy,3,NA,1
005SSDR,6,MS,medium,5,NA,1
005SSDR,6,MS,hard,5,NA,0.7142857142857143
005SSDR,7,MS,easy,3,NA,1
005SSDR,7,MS,medium,5,NA,1
005SSDR,7,MS,hard,2,NA,0.2857142857142857
005SSDR,8,MS,easy,3,NA,1
005SSDR,8,MS,medium,5,NA,1
005SSDR,8,MS,hard,7,NA,1
005SSDR,9,MS,easy,3,NA,1
005SSDR,9,MS,medium,5,NA,1
005SSDR,9,MS,hard,5,NA,0.7142857142857143
005SSDR,10,MS,easy,3,NA,1
005SSDR,10,MS,medium,5,NA,1
005SSDR,10,MS,hard,4,NA,0.5714285714285714
005SSDR,11,MS,easy,3,NA,1
005SSDR,11,MS,medium,5,NA,1
005SSDR,11,MS,hard,5,NA,0.7142857142857143
005SSDR,12,MS,easy,3,NA,1
005SSDR,12,MS,medium,5,NA,1
005SSDR,12,MS,hard,6,NA,0.8571428571428571
005SSDR,13,MS,easy,3,NA,1
005SSDR,13,MS,medium,5,NA,1
005SSDR,13,MS,hard,6,NA,0.8571428571428571
005SSDR,14,MS,easy,3,NA,1
005SSDR,14,MS,medium,5,NA,1
005SSDR,14,MS,hard,5,NA,0.7142857142857143
005SSDR,15,MS,easy,3,NA,1
005SSDR,15,MS,medium,5,NA,1
005SSDR,15,MS,hard,5,NA,0.7142857142857143
005SSDR,16,MS,easy,3,NA,1
005SSDR,16,MS,medium,5,NA,1
005SSDR,16,MS,hard,5,NA,0.7142857142857143
006SSEE,1,MS,easy,3,NA,1
006SSEE,1,MS,medium,5,NA,1
006SSEE,1,MS,hard,2,NA,0.2857142857142857
006SSEE,2,MS,easy,3,NA,1
006SSEE,2,MS,medium,4,NA,0.8
006SSEE,2,MS,hard,3,NA,0.42857142857142855
006SSEE,3,MS,easy,3,NA,1
006SSEE,3,MS,medium,3,NA,0.6
006SSEE,3,MS,hard,3,NA,0.42857142857142855
006SSEE,4,MS,easy,3,NA,1
006SSEE,4,MS,medium,4,NA,0.8
006SSEE,4,MS,hard,4,NA,0.5714285714285714
006SSEE,5,MS,easy,3,NA,1
006SSEE,5,MS,medium,3,NA,0.6
006SSEE,5,MS,hard,4,NA,0.5714285714285714
006SSEE,6,MS,easy,3,NA,1
006SSEE,6,MS,medium,5,NA,1
006SSEE,6,MS,hard,3,NA,0.42857142857142855
006SSEE,7,MS,easy,3,NA,1
006SSEE,7,MS,medium,3,NA,0.6
006SSEE,7,MS,hard,3,NA,0.42857142857142855
006SSEE,8,MS,easy,3,NA,1
006SSEE,8,MS,medium,5,NA,1
006SSEE,8,MS,hard,4,NA,0.5714285714285714
006SSEE,9,MS,easy,3,NA,1
006SSEE,9,MS,medium,5,NA,1
006SSEE,9,MS,hard,3,NA,0.42857142857142855
006SSEE,10,MS,easy,3,NA,1
006SSEE,10,MS,medium,4,NA,0.8
006SSEE,10,MS,hard,2,NA,0.2857142857142857
006SSEE,11,MS,easy,3,NA,1
006SSEE,11,MS,medium,4,NA,0.8
006SSEE,11,MS,hard,4,NA,0.5714285714285714
006SSEE,12,MS,easy,2,NA,0.6666666666666666
006SSEE,12,MS,medium,3,NA,0.6
006SSEE,12,MS,hard,4,NA,0.5714285714285714
006SSEE,13,MS,easy,2,NA,0.6666666666666666
006SSEE,13,MS,medium,5,NA,1
006SSEE,13,MS,hard,4,NA,0.5714285714285714
006SSEE,14,MS,easy,3,NA,1
006SSEE,14,MS,medium,2,NA,0.4
006SSEE,14,MS,hard,4,NA,0.5714285714285714
006SSEE,15,MS,easy,3,NA,1
006SSEE,15,MS,medium,4,NA,0.8
006SSEE,15,MS,hard,4,NA,0.5714285714285714
006SSEE,16,MS,easy,3,NA,1
006SSEE,16,MS,medium,3,NA,0.6
006SSEE,16,MS,hard,3,NA,0.42857142857142855
007SSJM,1,MS,easy,3,NA,1
007SSJM,1,MS,medium,4,NA,0.8
007SSJM,1,MS,hard,2,NA,0.2857142857142857
007SSJM,2,MS,easy,3,NA,1
007SSJM,2,MS,medium,5,NA,1
007SSJM,2,MS,hard,3,NA,0.42857142857142855
007SSJM,3,MS,easy,3,NA,1
007SSJM,3,MS,medium,5,NA,1
007SSJM,3,MS,hard,4,NA,0.5714285714285714
007SSJM,4,MS,easy,3,NA,1
007SSJM,4,MS,medium,4,NA,0.8
007SSJM,4,MS,hard,2,NA,0.2857142857142857
007SSJM,5,MS,easy,3,NA,1
007SSJM,5,MS,medium,4,NA,0.8
007SSJM,5,MS,hard,4,NA,0.5714285714285714
007SSJM,6,MS,easy,2,NA,0.6666666666666666
007SSJM,6,MS,medium,5,NA,1
007SSJM,6,MS,hard,4,NA,0.5714285714285714
007SSJM,7,MS,easy,0,NA,0
007SSJM,7,MS,medium,5,NA,1
007SSJM,7,MS,hard,4,NA,0.5714285714285714
007SSJM,8,MS,easy,3,NA,1
007SSJM,8,MS,medium,5,NA,1
007SSJM,8,MS,hard,3,NA,0.42857142857142855
007SSJM,9,MS,easy,3,NA,1
007SSJM,9,MS,medium,5,NA,1
007SSJM,9,MS,hard,4,NA,0.5714285714285714
007SSJM,10,MS,easy,3,NA,1
007SSJM,10,MS,medium,5,NA,1
007SSJM,10,MS,hard,4,NA,0.5714285714285714
007SSJM,11,MS,easy,3,NA,1
007SSJM,11,MS,medium,4,NA,0.8
007SSJM,11,MS,hard,3,NA,0.42857142857142855
007SSJM,12,MS,easy,3,NA,1
007SSJM,12,MS,medium,4,NA,0.8
007SSJM,12,MS,hard,2,NA,0.2857142857142857
007SSJM,13,MS,easy,3,NA,1
007SSJM,13,MS,medium,4,NA,0.8
007SSJM,13,MS,hard,3,NA,0.42857142857142855
007SSJM,14,MS,easy,3,NA,1
007SSJM,14,MS,medium,3,NA,0.6
007SSJM,14,MS,hard,3,NA,0.42857142857142855
007SSJM,15,MS,easy,3,NA,1
007SSJM,15,MS,medium,3,NA,0.6
007SSJM,15,MS,hard,3,NA,0.42857142857142855
007SSJM,16,MS,easy,3,NA,1
007SSJM,16,MS,medium,4,NA,0.8
007SSJM,16,MS,hard,3,NA,0.42857142857142855
009SSAP,1,MS,easy,3,NA,1
009SSAP,1,MS,medium,4,NA,0.8
009SSAP,1,MS,hard,5,NA,0.7142857142857143
009SSAP,2,MS,easy,3,NA,1
009SSAP,2,MS,medium,5,NA,1
009SSAP,2,MS,hard,3,NA,0.42857142857142855
009SSAP,3,MS,easy,3,NA,1
009SSAP,3,MS,medium,5,NA,1
009SSAP,3,MS,hard,3,NA,0.42857142857142855
009SSAP,4,MS,easy,3,NA,1
009SSAP,4,MS,medium,5,NA,1
009SSAP,4,MS,hard,4,NA,0.5714285714285714
009SSAP,5,MS,easy,3,NA,1
009SSAP,5,MS,medium,5,NA,1
009SSAP,5,MS,hard,6,NA,0.8571428571428571
009SSAP,6,MS,easy,3,NA,1
009SSAP,6,MS,medium,5,NA,1
009SSAP,6,MS,hard,7,NA,1
009SSAP,7,MS,easy,3,NA,1
009SSAP,7,MS,medium,5,NA,1
009SSAP,7,MS,hard,4,NA,0.5714285714285714
009SSAP,8,MS,easy,3,NA,1
009SSAP,8,MS,medium,5,NA,1
009SSAP,8,MS,hard,5,NA,0.7142857142857143
009SSAP,9,MS,easy,3,NA,1
009SSAP,9,MS,medium,5,NA,1
009SSAP,9,MS,hard,6,NA,0.8571428571428571
009SSAP,10,MS,easy,3,NA,1
009SSAP,10,MS,medium,5,NA,1
009SSAP,10,MS,hard,6,NA,0.8571428571428571
009SSAP,11,MS,easy,3,NA,1
009SSAP,11,MS,medium,4,NA,0.8
009SSAP,11,MS,hard,5,NA,0.7142857142857143
009SSAP,12,MS,easy,3,NA,1
009SSAP,12,MS,medium,5,NA,1
009SSAP,12,MS,hard,5,NA,0.7142857142857143
009SSAP,13,MS,easy,3,NA,1
009SSAP,13,MS,medium,5,NA,1
009SSAP,13,MS,hard,6,NA,0.8571428571428571
009SSAP,14,MS,easy,3,NA,1
009SSAP,14,MS,medium,5,NA,1
009SSAP,14,MS,hard,6,NA,0.8571428571428571
009SSAP,15,MS,easy,3,NA,1
009SSAP,15,MS,medium,5,NA,1
009SSAP,15,MS,hard,6,NA,0.8571428571428571
009SSAP,16,MS,easy,3,NA,1
009SSAP,16,MS,medium,4,NA,0.8
009SSAP,16,MS,hard,6,NA,0.8571428571428571
010SSEA,1,MS,easy,3,NA,1
010SSEA,1,MS,medium,4,NA,0.8
010SSEA,1,MS,hard,6,NA,0.8571428571428571
010SSEA,2,MS,easy,3,NA,1
010SSEA,2,MS,medium,5,NA,1
010SSEA,2,MS,hard,5,NA,0.7142857142857143
010SSEA,3,MS,easy,3,NA,1
010SSEA,3,MS,medium,5,NA,1
010SSEA,3,MS,hard,4,NA,0.5714285714285714
010SSEA,4,MS,easy,3,NA,1
010SSEA,4,MS,medium,5,NA,1
010SSEA,4,MS,hard,5,NA,0.7142857142857143
010SSEA,5,MS,easy,3,NA,1
010SSEA,5,MS,medium,5,NA,1
010SSEA,5,MS,hard,6,NA,0.8571428571428571
010SSEA,6,MS,easy,3,NA,1
010SSEA,6,MS,medium,5,NA,1
010SSEA,6,MS,hard,5,NA,0.7142857142857143
010SSEA,7,MS,easy,3,NA,1
010SSEA,7,MS,medium,5,NA,1
010SSEA,7,MS,hard,5,NA,0.7142857142857143
010SSEA,8,MS,easy,3,NA,1
010SSEA,8,MS,medium,4,NA,0.8
010SSEA,8,MS,hard,4,NA,0.5714285714285714
010SSEA,9,MS,easy,3,NA,1
010SSEA,9,MS,medium,5,NA,1
010SSEA,9,MS,hard,5,NA,0.7142857142857143
010SSEA,10,MS,easy,3,NA,1
010SSEA,10,MS,medium,5,NA,1
010SSEA,10,MS,hard,5,NA,0.7142857142857143
010SSEA,11,MS,easy,3,NA,1
010SSEA,11,MS,medium,5,NA,1
010SSEA,11,MS,hard,4,NA,0.5714285714285714
010SSEA,12,MS,easy,3,NA,1
010SSEA,12,MS,medium,4,NA,0.8
010SSEA,12,MS,hard,3,NA,0.42857142857142855
010SSEA,13,MS,easy,3,NA,1
010SSEA,13,MS,medium,4,NA,0.8
010SSEA,13,MS,hard,4,NA,0.5714285714285714
010SSEA,14,MS,easy,3,NA,1
010SSEA,14,MS,medium,5,NA,1
010SSEA,14,MS,hard,4,NA,0.5714285714285714
010SSEA,15,MS,easy,3,NA,1
010SSEA,15,MS,medium,5,NA,1
010SSEA,15,MS,hard,5,NA,0.7142857142857143
010SSEA,16,MS,easy,3,NA,1
010SSEA,16,MS,medium,4,NA,0.8
010SSEA,16,MS,hard,6,NA,0.8571428571428571
011SSAB,1,MS,easy,2,NA,0.6666666666666666
011SSAB,1,MS,medium,5,NA,1
011SSAB,1,MS,hard,4,NA,0.5714285714285714
011SSAB,2,MS,easy,3,NA,1
011SSAB,2,MS,medium,3,NA,0.6
011SSAB,2,MS,hard,4,NA,0.5714285714285714
011SSAB,3,MS,easy,3,NA,1
011SSAB,3,MS,medium,4,NA,0.8
011SSAB,3,MS,hard,3,NA,0.42857142857142855
011SSAB,4,MS,easy,3,NA,1
011SSAB,4,MS,medium,3,NA,0.6
011SSAB,4,MS,hard,5,NA,0.7142857142857143
011SSAB,5,MS,easy,3,NA,1
011SSAB,5,MS,medium,5,NA,1
011SSAB,5,MS,hard,2,NA,0.2857142857142857
011SSAB,6,MS,easy,3,NA,1
011SSAB,6,MS,medium,5,NA,1
011SSAB,6,MS,hard,5,NA,0.7142857142857143
011SSAB,7,MS,easy,3,NA,1
011SSAB,7,MS,medium,4,NA,0.8
011SSAB,7,MS,hard,3,NA,0.42857142857142855
011SSAB,8,MS,easy,3,NA,1
011SSAB,8,MS,medium,5,NA,1
011SSAB,8,MS,hard,3,NA,0.42857142857142855
011SSAB,9,MS,easy,3,NA,1
011SSAB,9,MS,medium,4,NA,0.8
011SSAB,9,MS,hard,4,NA,0.5714285714285714
011SSAB,10,MS,easy,2,NA,0.6666666666666666
011SSAB,10,MS,medium,4,NA,0.8
011SSAB,10,MS,hard,2,NA,0.2857142857142857
011SSAB,11,MS,easy,3,NA,1
011SSAB,11,MS,medium,5,NA,1
011SSAB,11,MS,hard,5,NA,0.7142857142857143
011SSAB,12,MS,easy,3,NA,1
011SSAB,12,MS,medium,1,NA,0.2
011SSAB,12,MS,hard,5,NA,0.7142857142857143
011SSAB,13,MS,easy,3,NA,1
011SSAB,13,MS,medium,3,NA,0.6
011SSAB,13,MS,hard,3,NA,0.42857142857142855
011SSAB,14,MS,easy,3,NA,1
011SSAB,14,MS,medium,2,NA,0.4
011SSAB,14,MS,hard,4,NA,0.5714285714285714
011SSAB,15,MS,easy,3,NA,1
011SSAB,15,MS,medium,3,NA,0.6
011SSAB,15,MS,hard,3,NA,0.42857142857142855
011SSAB,16,MS,easy,3,NA,1
011SSAB,16,MS,medium,4,NA,0.8
011SSAB,16,MS,hard,4,NA,0.5714285714285714
012EROP,1,MS,easy,3,NA,1
012EROP,1,MS,medium,5,NA,1
012EROP,1,MS,hard,4,NA,0.5714285714285714
012EROP,2,MS,easy,3,NA,1
012EROP,2,MS,medium,4,NA,0.8
012EROP,2,MS,hard,5,NA,0.7142857142857143
012EROP,3,MS,easy,3,NA,1
012EROP,3,MS,medium,5,NA,1
012EROP,3,MS,hard,4,NA,0.5714285714285714
012EROP,4,MS,easy,2,NA,0.6666666666666666
012EROP,4,MS,medium,4,NA,0.8
012EROP,4,MS,hard,2,NA,0.2857142857142857
012EROP,5,MS,easy,3,NA,1
012EROP,5,MS,medium,3,NA,0.6
012EROP,5,MS,hard,5,NA,0.7142857142857143
012EROP,6,MS,easy,3,NA,1
012EROP,6,MS,medium,4,NA,0.8
012EROP,6,MS,hard,2,NA,0.2857142857142857
012EROP,7,MS,easy,3,NA,1
012EROP,7,MS,medium,4,NA,0.8
012EROP,7,MS,hard,3,NA,0.42857142857142855
012EROP,8,MS,easy,3,NA,1
012EROP,8,MS,medium,5,NA,1
012EROP,8,MS,hard,5,NA,0.7142857142857143
012EROP,9,MS,easy,3,NA,1
012EROP,9,MS,medium,5,NA,1
012EROP,9,MS,hard,4,NA,0.5714285714285714
012EROP,10,MS,easy,3,NA,1
012EROP,10,MS,medium,5,NA,1
012EROP,10,MS,hard,5,NA,0.7142857142857143
012EROP,11,MS,easy,3,NA,1
012EROP,11,MS,medium,3,NA,0.6
012EROP,11,MS,hard,5,NA,0.7142857142857143
012EROP,12,MS,easy,3,NA,1
012EROP,12,MS,medium,5,NA,1
012EROP,12,MS,hard,5,NA,0.7142857142857143
012EROP,13,MS,easy,3,NA,1
012EROP,13,MS,medium,5,NA,1
012EROP,13,MS,hard,3,NA,0.42857142857142855
012EROP,14,MS,easy,3,NA,1
012EROP,14,MS,medium,4,NA,0.8
012EROP,14,MS,hard,4,NA,0.5714285714285714
012EROP,15,MS,easy,2,NA,0.6666666666666666
012EROP,15,MS,medium,3,NA,0.6
012EROP,15,MS,hard,2,NA,0.2857142857142857
012EROP,16,MS,easy,3,NA,1
012EROP,16,MS,medium,5,NA,1
012EROP,16,MS,hard,4,NA,0.5714285714285714
013ERVB,1,MS,easy,3,NA,1
013ERVB,1,MS,medium,5,NA,1
013ERVB,1,MS,hard,6,NA,0.8571428571428571
013ERVB,2,MS,easy,3,NA,1
013ERVB,2,MS,medium,5,NA,1
013ERVB,2,MS,hard,7,NA,1
013ERVB,3,MS,easy,3,NA,1
013ERVB,3,MS,medium,5,NA,1
013ERVB,3,MS,hard,6,NA,0.8571428571428571
013ERVB,4,MS,easy,3,NA,1
013ERVB,4,MS,medium,5,NA,1
013ERVB,4,MS,hard,7,NA,1
013ERVB,5,MS,easy,3,NA,1
013ERVB,5,MS,medium,5,NA,1
013ERVB,5,MS,hard,7,NA,1
013ERVB,6,MS,easy,3,NA,1
013ERVB,6,MS,medium,5,NA,1
013ERVB,6,MS,hard,7,NA,1
013ERVB,7,MS,easy,3,NA,1
013ERVB,7,MS,medium,5,NA,1
013ERVB,7,MS,hard,7,NA,1
013ERVB,8,MS,easy,3,NA,1
013ERVB,8,MS,medium,5,NA,1
013ERVB,8,MS,hard,7,NA,1
013ERVB,9,MS,easy,3,NA,1
013ERVB,9,MS,medium,5,NA,1
013ERVB,9,MS,hard,7,NA,1
013ERVB,10,MS,easy,3,NA,1
013ERVB,10,MS,medium,5,NA,1
013ERVB,10,MS,hard,7,NA,1
013ERVB,11,MS,easy,3,NA,1
013ERVB,11,MS,medium,5,NA,1
013ERVB,11,MS,hard,7,NA,1
013ERVB,12,MS,easy,3,NA,1
013ERVB,12,MS,medium,5,NA,1
013ERVB,12,MS,hard,7,NA,1
013ERVB,13,MS,easy,3,NA,1
013ERVB,13,MS,medium,5,NA,1
013ERVB,13,MS,hard,7,NA,1
013ERVB,14,MS,easy,3,NA,1
013ERVB,14,MS,medium,5,NA,1
013ERVB,14,MS,hard,7,NA,1
013ERVB,15,MS,easy,3,NA,1
013ERVB,15,MS,medium,5,NA,1
013ERVB,15,MS,hard,6,NA,0.8571428571428571
013ERVB,16,MS,easy,3,NA,1
013ERVB,16,MS,medium,5,NA,1
013ERVB,16,MS,hard,7,NA,1
014ERAI,1,MS,easy,3,NA,1
014ERAI,1,MS,medium,4,NA,0.8
014ERAI,1,MS,hard,4,NA,0.5714285714285714
014ERAI,2,MS,easy,3,NA,1
014ERAI,2,MS,medium,3,NA,0.6
014ERAI,2,MS,hard,3,NA,0.42857142857142855
014ERAI,3,MS,easy,3,NA,1
014ERAI,3,MS,medium,3,NA,0.6
014ERAI,3,MS,hard,4,NA,0.5714285714285714
014ERAI,4,MS,easy,3,NA,1
014ERAI,4,MS,medium,3,NA,0.6
014ERAI,4,MS,hard,4,NA,0.5714285714285714
014ERAI,5,MS,easy,3,NA,1
014ERAI,5,MS,medium,3,NA,0.6
014ERAI,5,MS,hard,4,NA,0.5714285714285714
014ERAI,6,MS,easy,3,NA,1
014ERAI,6,MS,medium,4,NA,0.8
014ERAI,6,MS,hard,4,NA,0.5714285714285714
014ERAI,7,MS,easy,3,NA,1
014ERAI,7,MS,medium,4,NA,0.8
014ERAI,7,MS,hard,3,NA,0.42857142857142855
014ERAI,8,MS,easy,3,NA,1
014ERAI,8,MS,medium,3,NA,0.6
014ERAI,8,MS,hard,3,NA,0.42857142857142855
014ERAI,9,MS,easy,2,NA,0.6666666666666666
014ERAI,9,MS,medium,2,NA,0.4
014ERAI,9,MS,hard,4,NA,0.5714285714285714
014ERAI,10,MS,easy,2,NA,0.6666666666666666
014ERAI,10,MS,medium,3,NA,0.6
014ERAI,10,MS,hard,3,NA,0.42857142857142855
014ERAI,11,MS,easy,3,NA,1
014ERAI,11,MS,medium,3,NA,0.6
014ERAI,11,MS,hard,3,NA,0.42857142857142855
014ERAI,12,MS,easy,3,NA,1
014ERAI,12,MS,medium,3,NA,0.6
014ERAI,12,MS,hard,3,NA,0.42857142857142855
014ERAI,13,MS,easy,2,NA,0.6666666666666666
014ERAI,13,MS,medium,3,NA,0.6
014ERAI,13,MS,hard,3,NA,0.42857142857142855
014ERAI,14,MS,easy,3,NA,1
014ERAI,14,MS,medium,3,NA,0.6
014ERAI,14,MS,hard,4,NA,0.5714285714285714
014ERAI,15,MS,easy,2,NA,0.6666666666666666
014ERAI,15,MS,medium,4,NA,0.8
014ERAI,15,MS,hard,5,NA,0.7142857142857143
014ERAI,16,MS,easy,3,NA,1
014ERAI,16,MS,medium,4,NA,0.8
014ERAI,16,MS,hard,5,NA,0.7142857142857143
016ERSA,1,MS,easy,3,NA,1
016ERSA,1,MS,medium,5,NA,1
016ERSA,1,MS,hard,3,NA,0.42857142857142855
016ERSA,2,MS,easy,3,NA,1
016ERSA,2,MS,medium,5,NA,1
016ERSA,2,MS,hard,4,NA,0.5714285714285714
016ERSA,3,MS,easy,3,NA,1
016ERSA,3,MS,medium,4,NA,0.8
016ERSA,3,MS,hard,4,NA,0.5714285714285714
016ERSA,4,MS,easy,3,NA,1
016ERSA,4,MS,medium,5,NA,1
016ERSA,4,MS,hard,2,NA,0.2857142857142857
016ERSA,5,MS,easy,3,NA,1
016ERSA,5,MS,medium,4,NA,0.8
016ERSA,5,MS,hard,4,NA,0.5714285714285714
016ERSA,6,MS,easy,3,NA,1
016ERSA,6,MS,medium,5,NA,1
016ERSA,6,MS,hard,4,NA,0.5714285714285714
016ERSA,7,MS,easy,3,NA,1
016ERSA,7,MS,medium,5,NA,1
016ERSA,7,MS,hard,4,NA,0.5714285714285714
016ERSA,8,MS,easy,3,NA,1
016ERSA,8,MS,medium,5,NA,1
016ERSA,8,MS,hard,3,NA,0.42857142857142855
016ERSA,9,MS,easy,3,NA,1
016ERSA,9,MS,medium,5,NA,1
016ERSA,9,MS,hard,4,NA,0.5714285714285714
016ERSA,10,MS,easy,3,NA,1
016ERSA,10,MS,medium,4,NA,0.8
016ERSA,10,MS,hard,4,NA,0.5714285714285714
016ERSA,11,MS,easy,3,NA,1
016ERSA,11,MS,medium,4,NA,0.8
016ERSA,11,MS,hard,5,NA,0.7142857142857143
016ERSA,12,MS,easy,3,NA,1
016ERSA,12,MS,medium,4,NA,0.8
016ERSA,12,MS,hard,5,NA,0.7142857142857143
016ERSA,13,MS,easy,3,NA,1
016ERSA,13,MS,medium,5,NA,1
016ERSA,13,MS,hard,3,NA,0.42857142857142855
016ERSA,14,MS,easy,3,NA,1
016ERSA,14,MS,medium,5,NA,1
016ERSA,14,MS,hard,3,NA,0.42857142857142855
016ERSA,15,MS,easy,3,NA,1
016ERSA,15,MS,medium,5,NA,1
016ERSA,15,MS,hard,4,NA,0.5714285714285714
016ERSA,16,MS,easy,3,NA,1
016ERSA,16,MS,medium,5,NA,1
016ERSA,16,MS,hard,4,NA,0.5714285714285714
019ERSM,1,MS,easy,3,NA,1
019ERSM,1,MS,medium,5,NA,1
019ERSM,1,MS,hard,5,NA,0.7142857142857143
019ERSM,2,MS,easy,3,NA,1
019ERSM,2,MS,medium,5,NA,1
019ERSM,2,MS,hard,7,NA,1
019ERSM,3,MS,easy,3,NA,1
019ERSM,3,MS,medium,5,NA,1
019ERSM,3,MS,hard,7,NA,1
019ERSM,4,MS,easy,3,NA,1
019ERSM,4,MS,medium,5,NA,1
019ERSM,4,MS,hard,6,NA,0.8571428571428571
019ERSM,5,MS,easy,3,NA,1
019ERSM,5,MS,medium,5,NA,1
019ERSM,5,MS,hard,6,NA,0.8571428571428571
019ERSM,6,MS,easy,3,NA,1
019ERSM,6,MS,medium,5,NA,1
019ERSM,6,MS,hard,5,NA,0.7142857142857143
019ERSM,7,MS,easy,3,NA,1
019ERSM,7,MS,medium,5,NA,1
019ERSM,7,MS,hard,7,NA,1
019ERSM,8,MS,easy,3,NA,1
019ERSM,8,MS,medium,5,NA,1
019ERSM,8,MS,hard,4,NA,0.5714285714285714
019ERSM,9,MS,easy,3,NA,1
019ERSM,9,MS,medium,5,NA,1
019ERSM,9,MS,hard,6,NA,0.8571428571428571
019ERSM,10,MS,easy,3,NA,1
019ERSM,10,MS,medium,5,NA,1
019ERSM,10,MS,hard,6,NA,0.8571428571428571
019ERSM,11,MS,easy,3,NA,1
019ERSM,11,MS,medium,5,NA,1
019ERSM,11,MS,hard,5,NA,0.7142857142857143
019ERSM,12,MS,easy,3,NA,1
019ERSM,12,MS,medium,5,NA,1
019ERSM,12,MS,hard,5,NA,0.7142857142857143
019ERSM,13,MS,easy,3,NA,1
019ERSM,13,MS,medium,5,NA,1
019ERSM,13,MS,hard,7,NA,1
019ERSM,14,MS,easy,3,NA,1
019ERSM,14,MS,medium,5,NA,1
019ERSM,14,MS,hard,5,NA,0.7142857142857143
019ERSM,15,MS,easy,3,NA,1
019ERSM,15,MS,medium,5,NA,1
019ERSM,15,MS,hard,7,NA,1
019ERSM,16,MS,easy,3,NA,1
019ERSM,16,MS,medium,5,NA,1
019ERSM,16,MS,hard,7,NA,1
021SSAZ,1,MS,easy,3,NA,1
021SSAZ,1,MS,medium,5,NA,1
021SSAZ,1,MS,hard,5,NA,0.7142857142857143
021SSAZ,2,MS,easy,3,NA,1
021SSAZ,2,MS,medium,5,NA,1
021SSAZ,2,MS,hard,5,NA,0.7142857142857143
021SSAZ,3,MS,easy,3,NA,1
021SSAZ,3,MS,medium,5,NA,1
021SSAZ,3,MS,hard,5,NA,0.7142857142857143
021SSAZ,4,MS,easy,3,NA,1
021SSAZ,4,MS,medium,5,NA,1
021SSAZ,4,MS,hard,6,NA,0.8571428571428571
021SSAZ,5,MS,easy,3,NA,1
021SSAZ,5,MS,medium,5,NA,1
021SSAZ,5,MS,hard,2,NA,0.2857142857142857
021SSAZ,6,MS,easy,3,NA,1
021SSAZ,6,MS,medium,5,NA,1
021SSAZ,6,MS,hard,5,NA,0.7142857142857143
021SSAZ,7,MS,easy,3,NA,1
021SSAZ,7,MS,medium,5,NA,1
021SSAZ,7,MS,hard,5,NA,0.7142857142857143
021SSAZ,8,MS,easy,3,NA,1
021SSAZ,8,MS,medium,5,NA,1
021SSAZ,8,MS,hard,6,NA,0.8571428571428571
021SSAZ,9,MS,easy,3,NA,1
021SSAZ,9,MS,medium,4,NA,0.8
021SSAZ,9,MS,hard,4,NA,0.5714285714285714
021SSAZ,10,MS,easy,3,NA,1
021SSAZ,10,MS,medium,5,NA,1
021SSAZ,10,MS,hard,5,NA,0.7142857142857143
021SSAZ,11,MS,easy,3,NA,1
021SSAZ,11,MS,medium,5,NA,1
021SSAZ,11,MS,hard,4,NA,0.5714285714285714
021SSAZ,12,MS,easy,3,NA,1
021SSAZ,12,MS,medium,5,NA,1
021SSAZ,12,MS,hard,4,NA,0.5714285714285714
021SSAZ,13,MS,easy,3,NA,1
021SSAZ,13,MS,medium,5,NA,1
021SSAZ,13,MS,hard,5,NA,0.7142857142857143
021SSAZ,14,MS,easy,3,NA,1
021SSAZ,14,MS,medium,5,NA,1
021SSAZ,14,MS,hard,6,NA,0.8571428571428571
021SSAZ,15,MS,easy,3,NA,1
021SSAZ,15,MS,medium,4,NA,0.8
021SSAZ,15,MS,hard,6,NA,0.8571428571428571
021SSAZ,16,MS,easy,3,NA,1
021SSAZ,16,MS,medium,5,NA,1
021SSAZ,16,MS,hard,5,NA,0.7142857142857143
022ERVS,1,MS,easy,3,NA,1
022ERVS,1,MS,medium,4,NA,0.8
022ERVS,1,MS,hard,5,NA,0.7142857142857143
022ERVS,2,MS,easy,3,NA,1
022ERVS,2,MS,medium,5,NA,1
022ERVS,2,MS,hard,7,NA,1
022ERVS,3,MS,easy,3,NA,1
022ERVS,3,MS,medium,4,NA,0.8
022ERVS,3,MS,hard,7,NA,1
022ERVS,4,MS,easy,3,NA,1
022ERVS,4,MS,medium,5,NA,1
022ERVS,4,MS,hard,6,NA,0.8571428571428571
022ERVS,5,MS,easy,3,NA,1
022ERVS,5,MS,medium,5,NA,1
022ERVS,5,MS,hard,6,NA,0.8571428571428571
022ERVS,6,MS,easy,3,NA,1
022ERVS,6,MS,medium,5,NA,1
022ERVS,6,MS,hard,6,NA,0.8571428571428571
022ERVS,7,MS,easy,3,NA,1
022ERVS,7,MS,medium,5,NA,1
022ERVS,7,MS,hard,6,NA,0.8571428571428571
022ERVS,8,MS,easy,3,NA,1
022ERVS,8,MS,medium,5,NA,1
022ERVS,8,MS,hard,7,NA,1
022ERVS,9,MS,easy,3,NA,1
022ERVS,9,MS,medium,5,NA,1
022ERVS,9,MS,hard,5,NA,0.7142857142857143
022ERVS,10,MS,easy,3,NA,1
022ERVS,10,MS,medium,4,NA,0.8
022ERVS,10,MS,hard,6,NA,0.8571428571428571
022ERVS,11,MS,easy,3,NA,1
022ERVS,11,MS,medium,5,NA,1
022ERVS,11,MS,hard,6,NA,0.8571428571428571
022ERVS,12,MS,easy,3,NA,1
022ERVS,12,MS,medium,5,NA,1
022ERVS,12,MS,hard,5,NA,0.7142857142857143
022ERVS,13,MS,easy,3,NA,1
022ERVS,13,MS,medium,5,NA,1
022ERVS,13,MS,hard,6,NA,0.8571428571428571
022ERVS,14,MS,easy,3,NA,1
022ERVS,14,MS,medium,5,NA,1
022ERVS,14,MS,hard,4,NA,0.5714285714285714
022ERVS,15,MS,easy,3,NA,1
022ERVS,15,MS,medium,5,NA,1
022ERVS,15,MS,hard,5,NA,0.7142857142857143
022ERVS,16,MS,easy,3,NA,1
022ERVS,16,MS,medium,5,NA,1
022ERVS,16,MS,hard,6,NA,0.8571428571428571
023ERRS,1,MS,easy,3,NA,1
023ERRS,1,MS,medium,4,NA,0.8
023ERRS,1,MS,hard,3,NA,0.42857142857142855
023ERRS,2,MS,easy,3,NA,1
023ERRS,2,MS,medium,5,NA,1
023ERRS,2,MS,hard,7,NA,1
023ERRS,3,MS,easy,3,NA,1
023ERRS,3,MS,medium,5,NA,1
023ERRS,3,MS,hard,7,NA,1
023ERRS,4,MS,easy,3,NA,1
023ERRS,4,MS,medium,4,NA,0.8
023ERRS,4,MS,hard,5,NA,0.7142857142857143
023ERRS,5,MS,easy,3,NA,1
023ERRS,5,MS,medium,4,NA,0.8
023ERRS,5,MS,hard,6,NA,0.8571428571428571
023ERRS,6,MS,easy,3,NA,1
023ERRS,6,MS,medium,4,NA,0.8
023ERRS,6,MS,hard,3,NA,0.42857142857142855
023ERRS,7,MS,easy,3,NA,1
023ERRS,7,MS,medium,4,NA,0.8
023ERRS,7,MS,hard,3,NA,0.42857142857142855
023ERRS,8,MS,easy,3,NA,1
023ERRS,8,MS,medium,4,NA,0.8
023ERRS,8,MS,hard,5,NA,0.7142857142857143
023ERRS,9,MS,easy,3,NA,1
023ERRS,9,MS,medium,5,NA,1
023ERRS,9,MS,hard,4,NA,0.5714285714285714
023ERRS,10,MS,easy,3,NA,1
023ERRS,10,MS,medium,4,NA,0.8
023ERRS,10,MS,hard,4,NA,0.5714285714285714
023ERRS,11,MS,easy,3,NA,1
023ERRS,11,MS,medium,5,NA,1
023ERRS,11,MS,hard,4,NA,0.5714285714285714
023ERRS,12,MS,easy,3,NA,1
023ERRS,12,MS,medium,5,NA,1
023ERRS,12,MS,hard,6,NA,0.8571428571428571
023ERRS,13,MS,easy,3,NA,1
023ERRS,13,MS,medium,4,NA,0.8
023ERRS,13,MS,hard,4,NA,0.5714285714285714
023ERRS,14,MS,easy,3,NA,1
023ERRS,14,MS,medium,4,NA,0.8
023ERRS,14,MS,hard,5,NA,0.7142857142857143
023ERRS,15,MS,easy,3,NA,1
023ERRS,15,MS,medium,4,NA,0.8
023ERRS,15,MS,hard,5,NA,0.7142857142857143
023ERRS,16,MS,easy,2,NA,0.6666666666666666
023ERRS,16,MS,medium,5,NA,1
023ERRS,16,MS,hard,2,NA,0.2857142857142857
024SSSV,1,MS,easy,3,11.8253,1
024SSSV,1,MS,medium,5,19.7908,1
024SSSV,1,MS,hard,4,12.6059,0.5714285714285714
024SSSV,2,MS,easy,3,12.6446,1
024SSSV,2,MS,medium,5,15.6936,1
024SSSV,2,MS,hard,4,13.7943,0.5714285714285714
024SSSV,3,MS,easy,3,10.4458,1
024SSSV,3,MS,medium,3,16.7931,0.6
024SSSV,3,MS,hard,3,16.7605,0.42857142857142855
024SSSV,4,MS,easy,3,10.4791,1
024SSSV,4,MS,medium,5,16.2605,1
024SSSV,4,MS,hard,2,7.9466,0.2857142857142857
024SSSV,5,MS,easy,3,13.1775,1
024SSSV,5,MS,medium,4,19.5325,0.8
024SSSV,5,MS,hard,2,10.779,0.2857142857142857
024SSSV,6,MS,easy,3,8.2468,1
024SSSV,6,MS,medium,4,16.1002,0.8
024SSSV,6,MS,hard,5,15.7434,0.7142857142857143
024SSSV,7,MS,easy,3,8.3964,1
024SSSV,7,MS,medium,4,15.1442,0.8
024SSSV,7,MS,hard,0,2.2138,0
024SSSV,8,MS,easy,3,9.2637,1
024SSSV,8,MS,medium,5,19.8414,1
024SSSV,8,MS,hard,5,16.485,0.7142857142857143
024SSSV,9,MS,easy,3,8.0133,1
024SSSV,9,MS,medium,3,16.2098,0.6
024SSSV,9,MS,hard,3,11.8607,0.42857142857142855
024SSSV,10,MS,easy,3,9.1961,1
024SSSV,10,MS,medium,3,15.0268,0.6
024SSSV,10,MS,hard,2,13.9769,0.2857142857142857
024SSSV,11,MS,easy,3,9.5289,1
024SSSV,11,MS,medium,4,16.2113,0.8
024SSSV,11,MS,hard,2,6.171,0.2857142857142857
024SSSV,12,MS,easy,3,8.9966,1
024SSSV,12,MS,medium,4,13.0856,0.8
024SSSV,12,MS,hard,5,24.3906,0.7142857142857143
024SSSV,13,MS,easy,3,7.3805,1
024SSSV,13,MS,medium,4,14.8259,0.8
024SSSV,13,MS,hard,5,16.9603,0.7142857142857143
024SSSV,14,MS,easy,3,9.9794,1
024SSSV,14,MS,medium,5,15.860900000000001,1
024SSSV,14,MS,hard,5,14.6346,0.7142857142857143
024SSSV,15,MS,easy,3,8.3869,1
024SSSV,15,MS,medium,1,6.5302,0.2
024SSSV,15,MS,hard,5,16.2762,0.7142857142857143
024SSSV,16,MS,easy,3,8.7123,1
024SSSV,16,MS,medium,4,14.5177,0.8
024SSSV,16,MS,hard,5,16.936,0.7142857142857143
026SSDM,1,MS,easy,3,NA,1
026SSDM,1,MS,medium,5,NA,1
026SSDM,1,MS,hard,6,NA,0.8571428571428571
026SSDM,2,MS,easy,3,NA,1
026SSDM,2,MS,medium,5,NA,1
026SSDM,2,MS,hard,5,NA,0.7142857142857143
026SSDM,3,MS,easy,3,NA,1
026SSDM,3,MS,medium,5,NA,1
026SSDM,3,MS,hard,4,NA,0.5714285714285714
026SSDM,4,MS,easy,3,NA,1
026SSDM,4,MS,medium,5,NA,1
026SSDM,4,MS,hard,5,NA,0.7142857142857143
026SSDM,5,MS,easy,3,NA,1
026SSDM,5,MS,medium,5,NA,1
026SSDM,5,MS,hard,6,NA,0.8571428571428571
026SSDM,6,MS,easy,3,NA,1
026SSDM,6,MS,medium,5,NA,1
026SSDM,6,MS,hard,6,NA,0.8571428571428571
026SSDM,7,MS,easy,3,NA,1
026SSDM,7,MS,medium,5,NA,1
026SSDM,7,MS,hard,4,NA,0.5714285714285714
026SSDM,8,MS,easy,3,NA,1
026SSDM,8,MS,medium,5,NA,1
026SSDM,8,MS,hard,5,NA,0.7142857142857143
026SSDM,9,MS,easy,3,NA,1
026SSDM,9,MS,medium,5,NA,1
026SSDM,9,MS,hard,6,NA,0.8571428571428571
026SSDM,10,MS,easy,3,NA,1
026SSDM,10,MS,medium,5,NA,1
026SSDM,10,MS,hard,6,NA,0.8571428571428571
026SSDM,11,MS,easy,3,NA,1
026SSDM,11,MS,medium,5,NA,1
026SSDM,11,MS,hard,5,NA,0.7142857142857143
026SSDM,12,MS,easy,3,NA,1
026SSDM,12,MS,medium,5,NA,1
026SSDM,12,MS,hard,5,NA,0.7142857142857143
026SSDM,13,MS,easy,3,NA,1
026SSDM,13,MS,medium,5,NA,1
026SSDM,13,MS,hard,7,NA,1
026SSDM,14,MS,easy,3,NA,1
026SSDM,14,MS,medium,5,NA,1
026SSDM,14,MS,hard,6,NA,0.8571428571428571
026SSDM,15,MS,easy,3,NA,1
026SSDM,15,MS,medium,5,NA,1
026SSDM,15,MS,hard,4,NA,0.5714285714285714
026SSDM,16,MS,easy,3,NA,1
026SSDM,16,MS,medium,5,NA,1
026SSDM,16,MS,hard,5,NA,0.7142857142857143
027ARDB,1,MS,easy,3,NA,1
027ARDB,1,MS,medium,4,NA,0.8
027ARDB,1,MS,hard,5,NA,0.7142857142857143
027ARDB,2,MS,easy,3,NA,1
027ARDB,2,MS,medium,5,NA,1
027ARDB,2,MS,hard,3,NA,0.42857142857142855
027ARDB,3,MS,easy,3,NA,1
027ARDB,3,MS,medium,5,NA,1
027ARDB,3,MS,hard,6,NA,0.8571428571428571
027ARDB,4,MS,easy,3,NA,1
027ARDB,4,MS,medium,5,NA,1
027ARDB,4,MS,hard,5,NA,0.7142857142857143
027ARDB,5,MS,easy,3,NA,1
027ARDB,5,MS,medium,5,NA,1
027ARDB,5,MS,hard,5,NA,0.7142857142857143
027ARDB,6,MS,easy,3,NA,1
027ARDB,6,MS,medium,5,NA,1
027ARDB,6,MS,hard,6,NA,0.8571428571428571
027ARDB,7,MS,easy,3,NA,1
027ARDB,7,MS,medium,5,NA,1
027ARDB,7,MS,hard,7,NA,1
027ARDB,8,MS,easy,3,NA,1
027ARDB,8,MS,medium,5,NA,1
027ARDB,8,MS,hard,5,NA,0.7142857142857143
027ARDB,9,MS,easy,3,NA,1
027ARDB,9,MS,medium,5,NA,1
027ARDB,9,MS,hard,4,NA,0.5714285714285714
027ARDB,10,MS,easy,3,NA,1
027ARDB,10,MS,medium,5,NA,1
027ARDB,10,MS,hard,4,NA,0.5714285714285714
027ARDB,11,MS,easy,3,NA,1
027ARDB,11,MS,medium,5,NA,1
027ARDB,11,MS,hard,5,NA,0.7142857142857143
027ARDB,12,MS,easy,3,NA,1
027ARDB,12,MS,medium,4,NA,0.8
027ARDB,12,MS,hard,5,NA,0.7142857142857143
027ARDB,13,MS,easy,3,NA,1
027ARDB,13,MS,medium,4,NA,0.8
027ARDB,13,MS,hard,6,NA,0.8571428571428571
027ARDB,14,MS,easy,3,NA,1
027ARDB,14,MS,medium,5,NA,1
027ARDB,14,MS,hard,6,NA,0.8571428571428571
027ARDB,15,MS,easy,2,NA,0.6666666666666666
027ARDB,15,MS,medium,5,NA,1
027ARDB,15,MS,hard,6,NA,0.8571428571428571
027ARDB,16,MS,easy,3,NA,1
027ARDB,16,MS,medium,4,NA,0.8
027ARDB,16,MS,hard,6,NA,0.8571428571428571
029SSDL,1,MS,easy,3,NA,1
029SSDL,1,MS,medium,4,NA,0.8
029SSDL,1,MS,hard,4,NA,0.5714285714285714
029SSDL,2,MS,easy,3,NA,1
029SSDL,2,MS,medium,5,NA,1
029SSDL,2,MS,hard,6,NA,0.8571428571428571
029SSDL,3,MS,easy,3,NA,1
029SSDL,3,MS,medium,5,NA,1
029SSDL,3,MS,hard,6,NA,0.8571428571428571
029SSDL,4,MS,easy,3,NA,1
029SSDL,4,MS,medium,5,NA,1
029SSDL,4,MS,hard,7,NA,1
029SSDL,5,MS,easy,3,NA,1
029SSDL,5,MS,medium,5,NA,1
029SSDL,5,MS,hard,6,NA,0.8571428571428571
029SSDL,6,MS,easy,3,NA,1
029SSDL,6,MS,medium,5,NA,1
029SSDL,6,MS,hard,5,NA,0.7142857142857143
029SSDL,7,MS,easy,3,NA,1
029SSDL,7,MS,medium,4,NA,0.8
029SSDL,7,MS,hard,5,NA,0.7142857142857143
029SSDL,8,MS,easy,3,NA,1
029SSDL,8,MS,medium,5,NA,1
029SSDL,8,MS,hard,6,NA,0.8571428571428571
029SSDL,9,MS,easy,3,NA,1
029SSDL,9,MS,medium,5,NA,1
029SSDL,9,MS,hard,7,NA,1
029SSDL,10,MS,easy,3,NA,1
029SSDL,10,MS,medium,5,NA,1
029SSDL,10,MS,hard,5,NA,0.7142857142857143
029SSDL,11,MS,easy,3,NA,1
029SSDL,11,MS,medium,5,NA,1
029SSDL,11,MS,hard,7,NA,1
029SSDL,12,MS,easy,2,NA,0.6666666666666666
029SSDL,12,MS,medium,5,NA,1
029SSDL,12,MS,hard,6,NA,0.8571428571428571
029SSDL,13,MS,easy,3,NA,1
029SSDL,13,MS,medium,5,NA,1
029SSDL,13,MS,hard,7,NA,1
029SSDL,14,MS,easy,3,NA,1
029SSDL,14,MS,medium,4,NA,0.8
029SSDL,14,MS,hard,7,NA,1
029SSDL,15,MS,easy,3,NA,1
029SSDL,15,MS,medium,4,NA,0.8
029SSDL,15,MS,hard,7,NA,1
029SSDL,16,MS,easy,3,NA,1
029SSDL,16,MS,medium,5,NA,1
029SSDL,16,MS,hard,7,NA,1
031SSAS,1,MS,easy,3,NA,1
031SSAS,1,MS,medium,3,NA,0.6
031SSAS,1,MS,hard,5,NA,0.7142857142857143
031SSAS,2,MS,easy,3,NA,1
031SSAS,2,MS,medium,3,NA,0.6
031SSAS,2,MS,hard,6,NA,0.8571428571428571
031SSAS,3,MS,easy,3,NA,1
031SSAS,3,MS,medium,5,NA,1
031SSAS,3,MS,hard,4,NA,0.5714285714285714
031SSAS,4,MS,easy,3,NA,1
031SSAS,4,MS,medium,5,NA,1
031SSAS,4,MS,hard,5,NA,0.7142857142857143
031SSAS,5,MS,easy,3,NA,1
031SSAS,5,MS,medium,5,NA,1
031SSAS,5,MS,hard,5,NA,0.7142857142857143
031SSAS,6,MS,easy,3,NA,1
031SSAS,6,MS,medium,4,NA,0.8
031SSAS,6,MS,hard,3,NA,0.42857142857142855
031SSAS,7,MS,easy,3,NA,1
031SSAS,7,MS,medium,4,NA,0.8
031SSAS,7,MS,hard,4,NA,0.5714285714285714
031SSAS,8,MS,easy,3,NA,1
031SSAS,8,MS,medium,4,NA,0.8
031SSAS,8,MS,hard,5,NA,0.7142857142857143
031SSAS,9,MS,easy,3,NA,1
031SSAS,9,MS,medium,5,NA,1
031SSAS,9,MS,hard,4,NA,0.5714285714285714
031SSAS,10,MS,easy,3,NA,1
031SSAS,10,MS,medium,5,NA,1
031SSAS,10,MS,hard,4,NA,0.5714285714285714
031SSAS,11,MS,easy,3,NA,1
031SSAS,11,MS,medium,4,NA,0.8
031SSAS,11,MS,hard,4,NA,0.5714285714285714
031SSAS,12,MS,easy,3,NA,1
031SSAS,12,MS,medium,4,NA,0.8
031SSAS,12,MS,hard,4,NA,0.5714285714285714
031SSAS,13,MS,easy,3,NA,1
031SSAS,13,MS,medium,5,NA,1
031SSAS,13,MS,hard,2,NA,0.2857142857142857
031SSAS,14,MS,easy,3,NA,1
031SSAS,14,MS,medium,5,NA,1
031SSAS,14,MS,hard,3,NA,0.42857142857142855
031SSAS,15,MS,easy,3,NA,1
031SSAS,15,MS,medium,5,NA,1
031SSAS,15,MS,hard,4,NA,0.5714285714285714
031SSAS,16,MS,easy,3,NA,1
031SSAS,16,MS,medium,5,NA,1
031SSAS,16,MS,hard,3,NA,0.42857142857142855
032SSAP,1,MS,easy,3,NA,1
032SSAP,1,MS,medium,3,NA,0.6
032SSAP,1,MS,hard,5,NA,0.7142857142857143
032SSAP,2,MS,easy,3,NA,1
032SSAP,2,MS,medium,4,NA,0.8
032SSAP,2,MS,hard,3,NA,0.42857142857142855
032SSAP,3,MS,easy,3,NA,1
032SSAP,3,MS,medium,5,NA,1
032SSAP,3,MS,hard,6,NA,0.8571428571428571
032SSAP,4,MS,easy,3,NA,1
032SSAP,4,MS,medium,5,NA,1
032SSAP,4,MS,hard,4,NA,0.5714285714285714
032SSAP,5,MS,easy,3,NA,1
032SSAP,5,MS,medium,3,NA,0.6
032SSAP,5,MS,hard,5,NA,0.7142857142857143
032SSAP,6,MS,easy,2,NA,0.6666666666666666
032SSAP,6,MS,medium,4,NA,0.8
032SSAP,6,MS,hard,4,NA,0.5714285714285714
032SSAP,7,MS,easy,3,NA,1
032SSAP,7,MS,medium,3,NA,0.6
032SSAP,7,MS,hard,4,NA,0.5714285714285714
032SSAP,8,MS,easy,3,NA,1
032SSAP,8,MS,medium,5,NA,1
032SSAP,8,MS,hard,5,NA,0.7142857142857143
032SSAP,9,MS,easy,3,NA,1
032SSAP,9,MS,medium,5,NA,1
032SSAP,9,MS,hard,4,NA,0.5714285714285714
032SSAP,10,MS,easy,3,NA,1
032SSAP,10,MS,medium,4,NA,0.8
032SSAP,10,MS,hard,5,NA,0.7142857142857143
032SSAP,11,MS,easy,3,NA,1
032SSAP,11,MS,medium,4,NA,0.8
032SSAP,11,MS,hard,2,NA,0.2857142857142857
032SSAP,12,MS,easy,3,NA,1
032SSAP,12,MS,medium,3,NA,0.6
032SSAP,12,MS,hard,3,NA,0.42857142857142855
032SSAP,13,MS,easy,3,NA,1
032SSAP,13,MS,medium,5,NA,1
032SSAP,13,MS,hard,3,NA,0.42857142857142855
032SSAP,14,MS,easy,3,NA,1
032SSAP,14,MS,medium,4,NA,0.8
032SSAP,14,MS,hard,0,NA,0
032SSAP,15,MS,easy,3,NA,1
032SSAP,15,MS,medium,5,NA,1
032SSAP,15,MS,hard,2,NA,0.2857142857142857
032SSAP,16,MS,easy,3,NA,1
032SSAP,16,MS,medium,4,NA,0.8
032SSAP,16,MS,hard,4,NA,0.5714285714285714
033SSML,1,MS,easy,3,13.8204,1
033SSML,1,MS,medium,5,41.589,1
033SSML,1,MS,hard,3,14.4623,0.42857142857142855
033SSML,2,MS,easy,3,14.1274,1
033SSML,2,MS,medium,3,18.925,0.6
033SSML,2,MS,hard,4,21.4905,0.5714285714285714
033SSML,3,MS,easy,3,11.7609,1
033SSML,3,MS,medium,5,22.225,1
033SSML,3,MS,hard,4,17.7936,0.5714285714285714
033SSML,4,MS,easy,3,13.2623,1
033SSML,4,MS,medium,3,21.6917,0.6
033SSML,4,MS,hard,3,15.427,0.42857142857142855
033SSML,5,MS,easy,3,10.83,1
033SSML,5,MS,medium,3,16.4267,0.6
033SSML,5,MS,hard,5,28.789,0.7142857142857143
033SSML,6,MS,easy,3,10.096,1
033SSML,6,MS,medium,4,15.6622,0.8
033SSML,6,MS,hard,5,21.0585,0.7142857142857143
033SSML,7,MS,easy,3,11.6286,1
033SSML,7,MS,medium,4,16.4608,0.8
033SSML,7,MS,hard,5,21.4248,0.7142857142857143
033SSML,8,MS,easy,3,11.3634,1
033SSML,8,MS,medium,4,16.9271,0.8
033SSML,8,MS,hard,5,19.1252,0.7142857142857143
033SSML,9,MS,easy,3,10.6312,1
033SSML,9,MS,medium,3,15.1599,0.6
033SSML,9,MS,hard,4,16.9913,0.5714285714285714
033SSML,10,MS,easy,3,13.096,1
033SSML,10,MS,medium,3,16.4939,0.6
033SSML,10,MS,hard,3,12.4283,0.42857142857142855
033SSML,11,MS,easy,3,10.7963,1
033SSML,11,MS,medium,4,24.9232,0.8
033SSML,11,MS,hard,3,10.9626,0.42857142857142855
033SSML,12,MS,easy,0,0.0158,0
033SSML,12,MS,medium,3,14.7607,0.6
033SSML,12,MS,hard,3,11.9611,0.42857142857142855
033SSML,13,MS,easy,3,13.4281,1
033SSML,13,MS,medium,3,14.3935,0.6
033SSML,13,MS,hard,5,21.1602,0.7142857142857143
033SSML,14,MS,easy,2,19.1592,0.6666666666666666
033SSML,14,MS,medium,4,13.7269,0.8
033SSML,14,MS,hard,2,10.7948,0.2857142857142857
033SSML,15,MS,easy,3,11.5277,1
033SSML,15,MS,medium,5,24.5571,1
033SSML,15,MS,hard,5,21.0592,0.7142857142857143
033SSML,16,MS,easy,3,11.9304,1
033SSML,16,MS,medium,5,28.6235,1
033SSML,16,MS,hard,4,19.1239,0.5714285714285714
035SSDD,1,MS,easy,3,11.83,1
035SSDD,1,MS,medium,4,21.9274,0.8
035SSDD,1,MS,hard,5,18.8204,0.7142857142857143
035SSDD,2,MS,easy,3,6.7482,1
035SSDD,2,MS,medium,5,28.1936,1
035SSDD,2,MS,hard,5,18.4125,0.7142857142857143
035SSDD,3,MS,easy,2,562.1342,0.6666666666666666
035SSDD,3,MS,medium,4,25.0106,0.8
035SSDD,3,MS,hard,4,18.8792,0.5714285714285714
035SSDD,4,MS,easy,3,43.8243,1
035SSDD,4,MS,medium,5,302.955,1
035SSDD,4,MS,hard,4,18.6293,0.5714285714285714
035SSDD,5,MS,easy,3,11.7972,1
035SSDD,5,MS,medium,4,55.887,0.8
035SSDD,5,MS,hard,5,33.7254,0.7142857142857143
035SSDD,6,MS,easy,3,8.2145,1
035SSDD,6,MS,medium,5,17.7955,1
035SSDD,6,MS,hard,5,29.1936,0.7142857142857143
035SSDD,7,MS,easy,3,8.4146,1
035SSDD,7,MS,medium,4,24.9279,0.8
035SSDD,7,MS,hard,4,22.7284,0.5714285714285714
035SSDD,8,MS,easy,3,25.7775,1
035SSDD,8,MS,medium,5,22.0285,1
035SSDD,8,MS,hard,5,63.2864,0.7142857142857143
035SSDD,9,MS,easy,2,8.1646,0.6666666666666666
035SSDD,9,MS,medium,4,18.4127,0.8
035SSDD,9,MS,hard,5,39.9137,0.7142857142857143
035SSDD,10,MS,easy,3,7.4811,1
035SSDD,10,MS,medium,3,17.1461,0.6
035SSDD,10,MS,hard,5,29.5437,0.7142857142857143
035SSDD,11,MS,easy,3,7.1816,1
035SSDD,11,MS,medium,4,16.6799,0.8
035SSDD,11,MS,hard,3,25.5765,0.42857142857142855
035SSDD,12,MS,easy,3,7.3482,1
035SSDD,12,MS,medium,5,13.8804,1
035SSDD,12,MS,hard,5,17.0352,0.7142857142857143
035SSDD,13,MS,easy,3,8.0814,1
035SSDD,13,MS,medium,5,13.8301,1
035SSDD,13,MS,hard,5,14.5023,0.7142857142857143
035SSDD,14,MS,easy,3,9.5979,1
035SSDD,14,MS,medium,3,18.3905,0.6
035SSDD,14,MS,hard,5,197.0756,0.7142857142857143
035SSDD,15,MS,easy,3,10.0311,1
035SSDD,15,MS,medium,4,26.9276,0.8
035SSDD,15,MS,hard,5,57.4541,0.7142857142857143
035SSDD,16,MS,easy,3,12.9306,1
035SSDD,16,MS,medium,4,13.8629,0.8
035SSDD,16,MS,hard,6,73.6843,0.8571428571428571
037ARDL,1,MS,easy,3,NA,1
037ARDL,1,MS,medium,5,NA,1
037ARDL,1,MS,hard,6,NA,0.8571428571428571
037ARDL,2,MS,easy,3,NA,1
037ARDL,2,MS,medium,4,NA,0.8
037ARDL,2,MS,hard,2,NA,0.2857142857142857
037ARDL,3,MS,easy,3,NA,1
037ARDL,3,MS,medium,5,NA,1
037ARDL,3,MS,hard,4,NA,0.5714285714285714
037ARDL,4,MS,easy,3,NA,1
037ARDL,4,MS,medium,3,NA,0.6
037ARDL,4,MS,hard,6,NA,0.8571428571428571
037ARDL,5,MS,easy,3,NA,1
037ARDL,5,MS,medium,4,NA,0.8
037ARDL,5,MS,hard,5,NA,0.7142857142857143
037ARDL,6,MS,easy,3,NA,1
037ARDL,6,MS,medium,4,NA,0.8
037ARDL,6,MS,hard,5,NA,0.7142857142857143
037ARDL,7,MS,easy,3,NA,1
037ARDL,7,MS,medium,5,NA,1
037ARDL,7,MS,hard,4,NA,0.5714285714285714
037ARDL,8,MS,easy,3,NA,1
037ARDL,8,MS,medium,4,NA,0.8
037ARDL,8,MS,hard,5,NA,0.7142857142857143
037ARDL,9,MS,easy,3,NA,1
037ARDL,9,MS,medium,5,NA,1
037ARDL,9,MS,hard,5,NA,0.7142857142857143
037ARDL,10,MS,easy,3,NA,1
037ARDL,10,MS,medium,4,NA,0.8
037ARDL,10,MS,hard,2,NA,0.2857142857142857
037ARDL,11,MS,easy,3,NA,1
037ARDL,11,MS,medium,3,NA,0.6
037ARDL,11,MS,hard,4,NA,0.5714285714285714
037ARDL,12,MS,easy,3,NA,1
037ARDL,12,MS,medium,5,NA,1
037ARDL,12,MS,hard,6,NA,0.8571428571428571
037ARDL,13,MS,easy,3,NA,1
037ARDL,13,MS,medium,5,NA,1
037ARDL,13,MS,hard,4,NA,0.5714285714285714
037ARDL,14,MS,easy,3,NA,1
037ARDL,14,MS,medium,4,NA,0.8
037ARDL,14,MS,hard,6,NA,0.8571428571428571
037ARDL,15,MS,easy,3,NA,1
037ARDL,15,MS,medium,4,NA,0.8
037ARDL,15,MS,hard,5,NA,0.7142857142857143
037ARDL,16,MS,easy,3,NA,1
037ARDL,16,MS,medium,4,NA,0.8
037ARDL,16,MS,hard,2,NA,0.2857142857142857
038AREN,1,MS,easy,3,NA,1
038AREN,1,MS,medium,5,NA,1
038AREN,1,MS,hard,5,NA,0.7142857142857143
038AREN,2,MS,easy,3,NA,1
038AREN,2,MS,medium,5,NA,1
038AREN,2,MS,hard,7,NA,1
038AREN,3,MS,easy,3,NA,1
038AREN,3,MS,medium,5,NA,1
038AREN,3,MS,hard,7,NA,1
038AREN,4,MS,easy,3,NA,1
038AREN,4,MS,medium,4,NA,0.8
038AREN,4,MS,hard,7,NA,1
038AREN,5,MS,easy,3,NA,1
038AREN,5,MS,medium,5,NA,1
038AREN,5,MS,hard,6,NA,0.8571428571428571
038AREN,6,MS,easy,3,NA,1
038AREN,6,MS,medium,4,NA,0.8
038AREN,6,MS,hard,4,NA,0.5714285714285714
038AREN,7,MS,easy,3,NA,1
038AREN,7,MS,medium,3,NA,0.6
038AREN,7,MS,hard,5,NA,0.7142857142857143
038AREN,8,MS,easy,3,NA,1
038AREN,8,MS,medium,5,NA,1
038AREN,8,MS,hard,6,NA,0.8571428571428571
038AREN,9,MS,easy,3,NA,1
038AREN,9,MS,medium,5,NA,1
038AREN,9,MS,hard,4,NA,0.5714285714285714
038AREN,10,MS,easy,3,NA,1
038AREN,10,MS,medium,5,NA,1
038AREN,10,MS,hard,7,NA,1
038AREN,11,MS,easy,3,NA,1
038AREN,11,MS,medium,5,NA,1
038AREN,11,MS,hard,7,NA,1
038AREN,12,MS,easy,3,NA,1
038AREN,12,MS,medium,4,NA,0.8
038AREN,12,MS,hard,6,NA,0.8571428571428571
038AREN,13,MS,easy,3,NA,1
038AREN,13,MS,medium,5,NA,1
038AREN,13,MS,hard,6,NA,0.8571428571428571
038AREN,14,MS,easy,3,NA,1
038AREN,14,MS,medium,4,NA,0.8
038AREN,14,MS,hard,7,NA,1
038AREN,15,MS,easy,3,NA,1
038AREN,15,MS,medium,5,NA,1
038AREN,15,MS,hard,7,NA,1
038AREN,16,MS,easy,3,NA,1
038AREN,16,MS,medium,5,NA,1
038AREN,16,MS,hard,7,NA,1
039ARVP,1,MS,easy,3,14.4582,1
039ARVP,1,MS,medium,5,29.9156,1
039ARVP,1,MS,hard,0,18.5629,0
039ARVP,2,MS,easy,3,13.6035,1
039ARVP,2,MS,medium,3,17.957,0.6
039ARVP,2,MS,hard,5,21.895,0.7142857142857143
039ARVP,3,MS,easy,3,20.7704,1
039ARVP,3,MS,medium,4,18.9372,0.8
039ARVP,3,MS,hard,4,17.7907,0.5714285714285714
039ARVP,4,MS,easy,3,14.5829,1
039ARVP,4,MS,medium,5,20.6869,1
039ARVP,4,MS,hard,5,21.7073,0.7142857142857143
039ARVP,5,MS,easy,3,13.3539,1
039ARVP,5,MS,medium,4,24.7283,0.8
039ARVP,5,MS,hard,3,13.1451,0.42857142857142855
039ARVP,6,MS,easy,3,16.9161,1
039ARVP,6,MS,medium,5,19.0825,1
039ARVP,6,MS,hard,2,13.9362,0.2857142857142857
039ARVP,7,MS,easy,3,13.9573,1
039ARVP,7,MS,medium,4,23.4157,0.8
039ARVP,7,MS,hard,3,18.4159,0.42857142857142855
039ARVP,8,MS,easy,3,12.3738,1
039ARVP,8,MS,medium,5,23.9362,1
039ARVP,8,MS,hard,3,24.4158,0.42857142857142855
039ARVP,9,MS,easy,3,14.3953,1
039ARVP,9,MS,medium,3,20.8118,0.6
039ARVP,9,MS,hard,1,15.853,0.14285714285714285
039ARVP,10,MS,easy,3,12.9366,1
039ARVP,10,MS,medium,4,20.4574,0.8
039ARVP,10,MS,hard,3,14.541,0.42857142857142855
039ARVP,11,MS,easy,3,13.666,1
039ARVP,11,MS,medium,4,22.041,0.8
039ARVP,11,MS,hard,3,17.6243,0.42857142857142855
039ARVP,12,MS,easy,3,11.6453,1
039ARVP,12,MS,medium,5,17.7701,1
039ARVP,12,MS,hard,4,18.1027,0.5714285714285714
039ARVP,13,MS,easy,3,14.687,1
039ARVP,13,MS,medium,4,22.8329,0.8
039ARVP,13,MS,hard,4,16.6657,0.5714285714285714
039ARVP,14,MS,easy,3,12.1872,1
039ARVP,14,MS,medium,5,20.4986,1
039ARVP,14,MS,hard,5,30.8739,0.7142857142857143
039ARVP,15,MS,easy,3,11.5825,1
039ARVP,15,MS,medium,5,20.9363,1
039ARVP,15,MS,hard,5,20.9365,0.7142857142857143
039ARVP,16,MS,easy,3,13.978,1
039ARVP,16,MS,medium,3,18.4157,0.6
039ARVP,16,MS,hard,5,27.1451,0.7142857142857143
042SSAA,1,MS,easy,3,12.7508,1
042SSAA,1,MS,medium,4,17.6817,0.8
042SSAA,1,MS,hard,5,25.2735,0.7142857142857143
042SSAA,2,MS,easy,3,14.0056,1
042SSAA,2,MS,medium,5,23.0732,1
042SSAA,2,MS,hard,3,23.0902,0.42857142857142855
042SSAA,3,MS,easy,3,18.0212,1
042SSAA,3,MS,medium,5,19.5613,1
042SSAA,3,MS,hard,6,24.4401,0.8571428571428571
042SSAA,4,MS,easy,3,16.148,1
042SSAA,4,MS,medium,3,20.1258,0.6
042SSAA,4,MS,hard,4,16.4478,0.5714285714285714
042SSAA,5,MS,easy,3,13.3135,1
042SSAA,5,MS,medium,2,20.9863,0.4
042SSAA,5,MS,hard,4,22.7387,0.5714285714285714
042SSAA,6,MS,easy,3,12.5282,1
042SSAA,6,MS,medium,4,15.2208,0.8
042SSAA,6,MS,hard,2,19.1018,0.2857142857142857
042SSAA,7,MS,easy,3,21.8209,1
042SSAA,7,MS,medium,5,19.4357,1
042SSAA,7,MS,hard,4,14.1137,0.5714285714285714
042SSAA,8,MS,easy,3,13.7458,1
042SSAA,8,MS,medium,5,14.6612,1
042SSAA,8,MS,hard,4,14.2127,0.5714285714285714
042SSAA,9,MS,easy,3,11.5106,1
042SSAA,9,MS,medium,4,23.1951,0.8
042SSAA,9,MS,hard,4,21.1606,0.5714285714285714
042SSAA,10,MS,easy,3,15.1812,1
042SSAA,10,MS,medium,3,16.3813,0.6
042SSAA,10,MS,hard,5,23.3388,0.7142857142857143
042SSAA,11,MS,easy,3,14.9467,1
042SSAA,11,MS,medium,5,18.6848,1
042SSAA,11,MS,hard,3,14.421,0.42857142857142855
042SSAA,12,MS,easy,3,12.6617,1
042SSAA,12,MS,medium,3,19.1007,0.6
042SSAA,12,MS,hard,3,14.2879,0.42857142857142855
042SSAA,13,MS,easy,2,10.7765,0.6666666666666666
042SSAA,13,MS,medium,3,11.461,0.6
042SSAA,13,MS,hard,3,18.8851,0.42857142857142855
042SSAA,14,MS,easy,3,13.4459,1
042SSAA,14,MS,medium,5,16.9159,1
042SSAA,14,MS,hard,7,28.6021,1
042SSAA,15,MS,easy,3,14.3298,1
042SSAA,15,MS,medium,4,14.4634,0.8
042SSAA,15,MS,hard,5,20.7273,0.7142857142857143
042SSAA,16,MS,easy,3,12.829,1
042SSAA,16,MS,medium,4,16.2155,0.8
042SSAA,16,MS,hard,5,20.7529,0.7142857142857143
045SSEM,1,MS,easy,3,12.8967,1
045SSEM,1,MS,medium,4,17.5989,0.8
045SSEM,1,MS,hard,6,22.1026,0.8571428571428571
045SSEM,2,MS,easy,3,24.3964,1
045SSEM,2,MS,medium,5,18.3807,1
045SSEM,2,MS,hard,5,16.699,0.7142857142857143
045SSEM,3,MS,easy,3,14.4312,1
045SSEM,3,MS,medium,5,14.75,1
045SSEM,3,MS,hard,5,17.4518,0.7142857142857143
045SSEM,4,MS,easy,3,12.4646,1
045SSEM,4,MS,medium,5,14.7487,1
045SSEM,4,MS,hard,5,18.5818,0.7142857142857143
045SSEM,5,MS,easy,3,12.8303,1
045SSEM,5,MS,medium,4,20.9981,0.8
045SSEM,5,MS,hard,4,15.9984,0.5714285714285714
045SSEM,6,MS,easy,3,9.3487,1
045SSEM,6,MS,medium,4,17.1147,0.8
045SSEM,6,MS,hard,5,20.4986,0.7142857142857143
045SSEM,7,MS,easy,3,9.8648,1
045SSEM,7,MS,medium,5,14.8812,1
045SSEM,7,MS,hard,7,25.7225,1
045SSEM,8,MS,easy,3,10.7327,1
045SSEM,8,MS,medium,5,20.3155,1
045SSEM,8,MS,hard,4,15.2302,0.5714285714285714
045SSEM,9,MS,easy,3,11.1647,1
045SSEM,9,MS,medium,5,20.9974,1
045SSEM,9,MS,hard,5,20.5,0.7142857142857143
045SSEM,10,MS,easy,3,10.4633,1
045SSEM,10,MS,medium,4,18.7596,0.8
045SSEM,10,MS,hard,4,22.5151,0.5714285714285714
045SSEM,11,MS,easy,3,9.9647,1
045SSEM,11,MS,medium,5,19.2137,1
045SSEM,11,MS,hard,3,17.6339,0.42857142857142855
045SSEM,12,MS,easy,3,8.7982,1
045SSEM,12,MS,medium,4,17.1476,0.8
045SSEM,12,MS,hard,5,29.9965,0.7142857142857143
045SSEM,13,MS,easy,3,11.1311,1
045SSEM,13,MS,medium,4,16.2305,0.8
045SSEM,13,MS,hard,5,22.0315,0.7142857142857143
045SSEM,14,MS,easy,3,14.9977,1
045SSEM,14,MS,medium,5,17.9521,1
045SSEM,14,MS,hard,6,22.3851,0.8571428571428571
045SSEM,15,MS,easy,3,11.6308,1
045SSEM,15,MS,medium,3,14.898,0.6
045SSEM,15,MS,hard,6,21.5975,0.8571428571428571
045SSEM,16,MS,easy,3,9.9314,1
045SSEM,16,MS,medium,3,14.7159,0.6
045SSEM,16,MS,hard,5,18.7138,0.7142857142857143
046SSVS,1,MS,easy,3,7.732,1
046SSVS,1,MS,medium,5,12.016,1
046SSVS,1,MS,hard,6,20.865,0.8571428571428571
046SSVS,2,MS,easy,3,7.483,1
046SSVS,2,MS,medium,4,11.766,0.8
046SSVS,2,MS,hard,7,20.831,1
046SSVS,3,MS,easy,3,9.231,1
046SSVS,3,MS,medium,5,12.132,1
046SSVS,3,MS,hard,5,18.549,0.7142857142857143
046SSVS,4,MS,easy,3,9.482,1
046SSVS,4,MS,medium,5,11.581,1
046SSVS,4,MS,hard,4,12.766,0.5714285714285714
046SSVS,5,MS,easy,3,7.749,1
046SSVS,5,MS,medium,5,11.083,1
046SSVS,5,MS,hard,7,18.083,1
046SSVS,6,MS,easy,3,8.266,1
046SSVS,6,MS,medium,5,10.884,1
046SSVS,6,MS,hard,5,11.399,0.7142857142857143
046SSVS,7,MS,easy,3,7.8,1
046SSVS,7,MS,medium,5,14.198,1
046SSVS,7,MS,hard,6,16.115,0.8571428571428571
046SSVS,8,MS,easy,3,7.215,1
046SSVS,8,MS,medium,5,12.35,1
046SSVS,8,MS,hard,6,13.983,0.8571428571428571
046SSVS,9,MS,easy,3,6.381,1
046SSVS,9,MS,medium,5,10.415,1
046SSVS,9,MS,hard,5,14.584,0.7142857142857143
046SSVS,10,MS,easy,3,7.065,1
046SSVS,10,MS,medium,5,9.899,1
046SSVS,10,MS,hard,4,12.848,0.5714285714285714
046SSVS,11,MS,easy,3,7.532,1
046SSVS,11,MS,medium,5,10.682,1
046SSVS,11,MS,hard,4,13.116,0.5714285714285714
046SSVS,12,MS,easy,3,7.816,1
046SSVS,12,MS,medium,5,9.601,1
046SSVS,12,MS,hard,6,15.365,0.8571428571428571
046SSVS,13,MS,easy,3,5.699,1
046SSVS,13,MS,medium,5,9.531,1
046SSVS,13,MS,hard,5,12.833,0.7142857142857143
046SSVS,14,MS,easy,3,7.798,1
046SSVS,14,MS,medium,5,12.331,1
046SSVS,14,MS,hard,4,8.799,0.5714285714285714
046SSVS,15,MS,easy,3,6.199,1
046SSVS,15,MS,medium,5,8.432,1
046SSVS,15,MS,hard,5,10.45,0.7142857142857143
046SSVS,16,MS,easy,3,5.798,1
046SSVS,16,MS,medium,5,9.715,1
046SSVS,16,MS,hard,4,9.949,0.5714285714285714
047SSAK,1,MS,easy,3,11.4324,1
047SSAK,1,MS,medium,5,15.6834,1
047SSAK,1,MS,hard,2,26.8666,0.2857142857142857
047SSAK,2,MS,easy,3,13.3824,1
047SSAK,2,MS,medium,5,14.8989,1
047SSAK,2,MS,hard,7,17.8837,1
047SSAK,3,MS,easy,3,13.0158,1
047SSAK,3,MS,medium,5,15.5481,1
047SSAK,3,MS,hard,7,17.5673,1
047SSAK,4,MS,easy,3,8.466,1
047SSAK,4,MS,medium,5,14.9324,1
047SSAK,4,MS,hard,7,18.4154,1
047SSAK,5,MS,easy,3,10.3146,1
047SSAK,5,MS,medium,5,16.8982,1
047SSAK,5,MS,hard,7,19.6159,1
047SSAK,6,MS,easy,3,11.4485,1
047SSAK,6,MS,medium,5,13.464,1
047SSAK,6,MS,hard,6,20.1167,0.8571428571428571
047SSAK,7,MS,easy,0,12.7167,0
047SSAK,7,MS,medium,4,15.9315,0.8
047SSAK,7,MS,hard,7,18.4823,1
047SSAK,8,MS,easy,3,7.2173,1
047SSAK,8,MS,medium,5,16.6645,1
047SSAK,8,MS,hard,7,17.7502,1
047SSAK,9,MS,easy,3,8.0981,1
047SSAK,9,MS,medium,5,13.1983,1
047SSAK,9,MS,hard,7,19.3327,1
047SSAK,10,MS,easy,3,7.6826,1
047SSAK,10,MS,medium,5,16.2805,1
047SSAK,10,MS,hard,7,16.3835,1
047SSAK,11,MS,easy,3,13.2337,1
047SSAK,11,MS,medium,5,15.3322,1
047SSAK,11,MS,hard,5,30.2839,0.7142857142857143
047SSAK,12,MS,easy,3,8.4834,1
047SSAK,12,MS,medium,5,15.999,1
047SSAK,12,MS,hard,7,21.1163,1
047SSAK,13,MS,easy,3,8.7989,1
047SSAK,13,MS,medium,5,19.2157,1
047SSAK,13,MS,hard,7,21.5501,1
047SSAK,14,MS,easy,3,8.7005,1
047SSAK,14,MS,medium,5,14.3998,1
047SSAK,14,MS,hard,7,18.7984,1
047SSAK,15,MS,easy,3,8.7333,1
047SSAK,15,MS,medium,5,18.9656,1
047SSAK,15,MS,hard,7,21.3651,1
047SSAK,16,MS,easy,3,7.2483,1
047SSAK,16,MS,medium,5,18.3161,1
047SSAK,16,MS,hard,4,36.8507,0.5714285714285714
048SSAG,1,MS,easy,3,11.932,1
048SSAG,1,MS,medium,5,15.933,1
048SSAG,1,MS,hard,3,20.134,0.42857142857142855
048SSAG,2,MS,easy,3,10.849,1
048SSAG,2,MS,medium,5,15.933,1
048SSAG,2,MS,hard,5,19.183,0.7142857142857143
048SSAG,3,MS,easy,3,12.117,1
048SSAG,3,MS,medium,5,14.783,1
048SSAG,3,MS,hard,6,27.335,0.8571428571428571
048SSAG,4,MS,easy,3,12.3,1
048SSAG,4,MS,medium,5,15.267,1
048SSAG,4,MS,hard,6,21.917,0.8571428571428571
048SSAG,5,MS,easy,3,10.1,1
048SSAG,5,MS,medium,5,19.867,1
048SSAG,5,MS,hard,6,32.168,0.8571428571428571
048SSAG,6,MS,easy,3,10.618,1
048SSAG,6,MS,medium,5,19.435,1
048SSAG,6,MS,hard,4,17.7,0.5714285714285714
048SSAG,7,MS,easy,3,15.266,1
048SSAG,7,MS,medium,5,15.134,1
048SSAG,7,MS,hard,5,29.118,0.7142857142857143
048SSAG,8,MS,easy,3,8.416,1
048SSAG,8,MS,medium,5,16.717,1
048SSAG,8,MS,hard,7,23.818,1
048SSAG,9,MS,easy,3,9.199,1
048SSAG,9,MS,medium,5,15.817,1
048SSAG,9,MS,hard,7,22.001,1
048SSAG,10,MS,easy,3,7.65,1
048SSAG,10,MS,medium,5,14.067,1
048SSAG,10,MS,hard,5,27.566,0.7142857142857143
048SSAG,11,MS,easy,3,7.933,1
048SSAG,11,MS,medium,5,15.651,1
048SSAG,11,MS,hard,5,23.234,0.7142857142857143
048SSAG,12,MS,easy,3,8.366,1
048SSAG,12,MS,medium,5,14.016,1
048SSAG,12,MS,hard,3,28.585,0.42857142857142855
048SSAG,13,MS,easy,3,8.315,1
048SSAG,13,MS,medium,5,18.032,1
048SSAG,13,MS,hard,4,16.885,0.5714285714285714
048SSAG,14,MS,easy,3,9.883,1
048SSAG,14,MS,medium,5,16.035,1
048SSAG,14,MS,hard,5,19.968,0.7142857142857143
048SSAG,15,MS,easy,3,8.466,1
048SSAG,15,MS,medium,4,16.067,0.8
048SSAG,15,MS,hard,4,27.318,0.5714285714285714
048SSAG,16,MS,easy,3,9.682,1
048SSAG,16,MS,medium,5,17.867,1
048SSAG,16,MS,hard,5,25.218,0.7142857142857143
052SSME,1,MS,easy,3,10.3821,1
052SSME,1,MS,medium,5,15.715,1
052SSME,1,MS,hard,6,20.7492,0.8571428571428571
052SSME,2,MS,easy,3,8.2504,1
052SSME,2,MS,medium,5,14.2165,1
052SSME,2,MS,hard,4,34.9975,0.5714285714285714
052SSME,3,MS,easy,3,9.5999,1
052SSME,3,MS,medium,5,19.0499,1
052SSME,3,MS,hard,6,30.2476,0.8571428571428571
052SSME,4,MS,easy,3,10.2319,1
052SSME,4,MS,medium,5,17.1136,1
052SSME,4,MS,hard,5,17.1978,0.7142857142857143
052SSME,5,MS,easy,3,8.4333,1
052SSME,5,MS,medium,5,18.6648,1
052SSME,5,MS,hard,4,12.9311,0.5714285714285714
052SSME,6,MS,easy,3,7.5823,1
052SSME,6,MS,medium,5,20.1657,1
052SSME,6,MS,hard,7,21.4502,1
052SSME,7,MS,easy,3,7.0993,1
052SSME,7,MS,medium,5,12.9493,1
052SSME,7,MS,hard,5,23.7659,0.7142857142857143
052SSME,8,MS,easy,3,7.3839,1
052SSME,8,MS,medium,5,19.1989,1
052SSME,8,MS,hard,4,21.7823,0.5714285714285714
052SSME,9,MS,easy,3,8.2161,1
052SSME,9,MS,medium,5,17.5491,1
052SSME,9,MS,hard,5,15.5314,0.7142857142857143
052SSME,10,MS,easy,3,6.9991,1
052SSME,10,MS,medium,4,14.8152,0.8
052SSME,10,MS,hard,6,17.7491,0.8571428571428571
052SSME,11,MS,easy,3,9.3503,1
052SSME,11,MS,medium,5,18.6154,1
052SSME,11,MS,hard,4,17.2342,0.5714285714285714
052SSME,12,MS,easy,3,8.0489,1
052SSME,12,MS,medium,5,13.8987,1
052SSME,12,MS,hard,7,22.4657,1
052SSME,13,MS,easy,3,7.6321,1
052SSME,13,MS,medium,5,12.6645,1
052SSME,13,MS,hard,7,19.4314,1
052SSME,14,MS,easy,3,10.7655,1
052SSME,14,MS,medium,5,16.2987,1
052SSME,14,MS,hard,5,21.7328,0.7142857142857143
052SSME,15,MS,easy,3,9.832,1
052SSME,15,MS,medium,5,14.8819,1
052SSME,15,MS,hard,5,16.3164,0.7142857142857143
052SSME,16,MS,easy,3,7.699,1
052SSME,16,MS,medium,5,12.6658,1
052SSME,16,MS,hard,5,16.5843,0.7142857142857143
053SSAF,1,MS,easy,3,6.6655,1
053SSAF,1,MS,medium,5,10.798,1
053SSAF,1,MS,hard,4,15.5825,0.5714285714285714
053SSAF,2,MS,easy,3,7.5664,1
053SSAF,2,MS,medium,5,11.1328,1
053SSAF,2,MS,hard,2,7.4669,0.2857142857142857
053SSAF,3,MS,easy,3,7.8995,1
053SSAF,3,MS,medium,4,10.5989,0.8
053SSAF,3,MS,hard,6,13.9825,0.8571428571428571
053SSAF,4,MS,easy,2,12.2155,0.6666666666666666
053SSAF,4,MS,medium,4,9.2168,0.8
053SSAF,4,MS,hard,4,13.5331,0.5714285714285714
053SSAF,5,MS,easy,3,5.6155,1
053SSAF,5,MS,medium,4,14.3326,0.8
053SSAF,5,MS,hard,3,8.7489,0.42857142857142855
053SSAF,6,MS,easy,3,8.2834,1
053SSAF,6,MS,medium,4,10.9323,0.8
053SSAF,6,MS,hard,5,14.8651,0.7142857142857143
053SSAF,7,MS,easy,3,8.0664,1
053SSAF,7,MS,medium,5,8.9496,1
053SSAF,7,MS,hard,3,11.1326,0.42857142857142855
053SSAF,8,MS,easy,3,8.3504,1
053SSAF,8,MS,medium,3,14.2998,0.6
053SSAF,8,MS,hard,5,11.1147,0.7142857142857143
053SSAF,9,MS,easy,3,7.0324,1
053SSAF,9,MS,medium,3,6.866,0.6
053SSAF,9,MS,hard,3,10.2665,0.42857142857142855
053SSAF,10,MS,easy,3,11.4992,1
053SSAF,10,MS,medium,2,3.8322,0.4
053SSAF,10,MS,hard,4,9.8489,0.5714285714285714
053SSAF,11,MS,easy,3,7.5494,1
053SSAF,11,MS,medium,3,8.1827,0.6
053SSAF,11,MS,hard,5,11.7834,0.7142857142857143
053SSAF,12,MS,easy,3,8.7993,1
053SSAF,12,MS,medium,5,15.3156,1
053SSAF,12,MS,hard,7,16.5559,1
053SSAF,13,MS,easy,3,6.9323,1
053SSAF,13,MS,medium,5,9.6328,1
053SSAF,13,MS,hard,5,15.5313,0.7142857142857143
053SSAF,14,MS,easy,3,8.7989,1
053SSAF,14,MS,medium,5,8.8998,1
053SSAF,14,MS,hard,5,11.1341,0.7142857142857143
053SSAF,15,MS,easy,3,8.2995,1
053SSAF,15,MS,medium,5,9.8978,1
053SSAF,15,MS,hard,2,5.0827,0.2857142857142857
053SSAF,16,MS,easy,3,5.9823,1
053SSAF,16,MS,medium,5,8.5163,1
053SSAF,16,MS,hard,5,11.0165,0.7142857142857143
054SSEB,1,MS,easy,3,10.1402,1
054SSEB,1,MS,medium,5,17.0361,1
054SSEB,1,MS,hard,6,24.9056,0.8571428571428571
054SSEB,2,MS,easy,3,9.4584,1
054SSEB,2,MS,medium,5,16.4019,1
054SSEB,2,MS,hard,5,25.6113,0.7142857142857143
054SSEB,3,MS,easy,3,10.1747,1
054SSEB,3,MS,medium,5,16.8356,1
054SSEB,3,MS,hard,5,33.2887,0.7142857142857143
054SSEB,4,MS,easy,3,9.1587,1
054SSEB,4,MS,medium,5,15.6857,1
054SSEB,4,MS,hard,5,27.2603,0.7142857142857143
054SSEB,5,MS,easy,3,11.8567,1
054SSEB,5,MS,medium,5,20.2328,1
054SSEB,5,MS,hard,6,23.1306,0.8571428571428571
054SSEB,6,MS,easy,3,10.1911,1
054SSEB,6,MS,medium,5,25.8448,1
054SSEB,6,MS,hard,4,28.5093,0.5714285714285714
054SSEB,7,MS,easy,3,10.341,1
054SSEB,7,MS,medium,5,16.2191,1
054SSEB,7,MS,hard,5,17.7848,0.7142857142857143
054SSEB,8,MS,easy,3,12.3232,1
054SSEB,8,MS,medium,5,16.4025,1
054SSEB,8,MS,hard,5,18.4677,0.7142857142857143
054SSEB,9,MS,easy,3,10.9071,1
054SSEB,9,MS,medium,5,16.1194,1
054SSEB,9,MS,hard,4,22.8141,0.5714285714285714
054SSEB,10,MS,easy,3,9.7081,1
054SSEB,10,MS,medium,5,19.25,1
054SSEB,10,MS,hard,4,18.4343,0.5714285714285714
054SSEB,11,MS,easy,3,11.9564,1
054SSEB,11,MS,medium,5,16.2524,1
054SSEB,11,MS,hard,6,27.0772,0.8571428571428571
054SSEB,12,MS,easy,3,9.059,1
054SSEB,12,MS,medium,5,15.8532,1
054SSEB,12,MS,hard,5,22.1145,0.7142857142857143
054SSEB,13,MS,easy,3,11.3399,1
054SSEB,13,MS,medium,5,25.9451,1
054SSEB,13,MS,hard,4,17.4354,0.5714285714285714
054SSEB,14,MS,easy,3,11.5561,1
054SSEB,14,MS,medium,5,16.0189,1
054SSEB,14,MS,hard,6,23.9299,0.8571428571428571
054SSEB,15,MS,easy,3,9.0758,1
054SSEB,15,MS,medium,5,18.4344,1
054SSEB,15,MS,hard,5,16.9521,0.7142857142857143
054SSEB,16,MS,easy,3,9.4253,1
054SSEB,16,MS,medium,5,29.5417,1
054SSEB,16,MS,hard,7,36.0859,1
055SSNS,1,MS,easy,3,10.9352,1
055SSNS,1,MS,medium,5,18.5884,1
055SSNS,1,MS,hard,4,15.8448,0.5714285714285714
055SSNS,2,MS,easy,3,12.9115,1
055SSNS,2,MS,medium,5,16.4371,1
055SSNS,2,MS,hard,5,20.197,0.7142857142857143
055SSNS,3,MS,easy,3,12.6198,1
055SSNS,3,MS,medium,5,16.9869,1
055SSNS,3,MS,hard,6,41.061,0.8571428571428571
055SSNS,4,MS,easy,3,12.4268,1
055SSNS,4,MS,medium,4,16.9537,0.8
055SSNS,4,MS,hard,3,34.0844,0.42857142857142855
055SSNS,5,MS,easy,3,9.1353,1
055SSNS,5,MS,medium,5,20.1219,1
055SSNS,5,MS,hard,4,22.4468,0.5714285714285714
055SSNS,6,MS,easy,3,10.4691,1
055SSNS,6,MS,medium,5,19.8214,1
055SSNS,6,MS,hard,4,24.8727,0.5714285714285714
055SSNS,7,MS,easy,3,15.6948,1
055SSNS,7,MS,medium,5,22.8052,1
055SSNS,7,MS,hard,3,15.7033,0.42857142857142855
055SSNS,8,MS,easy,3,8.9685,1
055SSNS,8,MS,medium,4,33.4584,0.8
055SSNS,8,MS,hard,5,21.0392,0.7142857142857143
055SSNS,9,MS,easy,3,11.9861,1
055SSNS,9,MS,medium,4,24.7551,0.8
055SSNS,9,MS,hard,5,24.6386,0.7142857142857143
055SSNS,10,MS,easy,3,10.7937,1
055SSNS,10,MS,medium,5,40.5763,1
055SSNS,10,MS,hard,5,24.7224,0.7142857142857143
055SSNS,11,MS,easy,3,9.6603,1
055SSNS,11,MS,medium,4,29.7403,0.8
055SSNS,11,MS,hard,3,22.1384,0.42857142857142855
055SSNS,12,MS,easy,3,9.5602,1
055SSNS,12,MS,medium,5,17.8371,1
055SSNS,12,MS,hard,3,19.0041,0.42857142857142855
055SSNS,13,MS,easy,3,11.3775,1
055SSNS,13,MS,medium,5,16.6374,1
055SSNS,13,MS,hard,5,22.4216,0.7142857142857143
055SSNS,14,MS,easy,3,8.6353,1
055SSNS,14,MS,medium,5,15.1702,1
055SSNS,14,MS,hard,6,31.2584,0.8571428571428571
055SSNS,15,MS,easy,3,9.01,1
055SSNS,15,MS,medium,4,21.5382,0.8
055SSNS,15,MS,hard,4,23.756,0.5714285714285714
055SSNS,16,MS,easy,3,11.3536,1
055SSNS,16,MS,medium,5,16.6038,1
055SSNS,16,MS,hard,6,51.2631,0.8571428571428571
056SSKA,1,MS,easy,3,10.017,1
056SSKA,1,MS,medium,5,18.2171,1
056SSKA,1,MS,hard,5,25.2635,0.7142857142857143
056SSKA,2,MS,easy,3,10.3343,1
056SSKA,2,MS,medium,5,16.5719,1
056SSKA,2,MS,hard,5,18.8199,0.7142857142857143
056SSKA,3,MS,easy,3,13.368,1
056SSKA,3,MS,medium,5,20.1534,1
056SSKA,3,MS,hard,5,16.9681,0.7142857142857143
056SSKA,4,MS,easy,3,11.8178,1
056SSKA,4,MS,medium,5,16.4682,1
056SSKA,4,MS,hard,7,24.5037,1
056SSKA,5,MS,easy,3,13.0367,1
056SSKA,5,MS,medium,5,17.0355,1
056SSKA,5,MS,hard,6,19.4501,0.8571428571428571
056SSKA,6,MS,easy,3,9.1846,1
056SSKA,6,MS,medium,5,14.6186,1
056SSKA,6,MS,hard,6,20.4691,0.8571428571428571
056SSKA,7,MS,easy,3,11.5103,1
056SSKA,7,MS,medium,5,17.7442,1
056SSKA,7,MS,hard,4,20.9367,0.5714285714285714
056SSKA,8,MS,easy,3,8.4179,1
056SSKA,8,MS,medium,5,19.3352,1
056SSKA,8,MS,hard,4,24.3214,0.5714285714285714
056SSKA,9,MS,easy,3,9.3013,1
056SSKA,9,MS,medium,5,14.7939,1
056SSKA,9,MS,hard,5,28.0885,0.7142857142857143
056SSKA,10,MS,easy,3,9.4506,1
056SSKA,10,MS,medium,5,18.4356,1
056SSKA,10,MS,hard,4,20.3359,0.5714285714285714
056SSKA,11,MS,easy,3,10.4837,1
056SSKA,11,MS,medium,5,12.9598,1
056SSKA,11,MS,hard,4,19.3701,0.5714285714285714
056SSKA,12,MS,easy,3,11.1535,1
056SSKA,12,MS,medium,4,21.4847,0.8
056SSKA,12,MS,hard,4,21.7853,0.5714285714285714
056SSKA,13,MS,easy,3,10.5111,1
056SSKA,13,MS,medium,5,20.8276,1
056SSKA,13,MS,hard,7,26.6288,1
056SSKA,14,MS,easy,3,8.8261,1
056SSKA,14,MS,medium,5,14.9514,1
056SSKA,14,MS,hard,5,25.013,0.7142857142857143
056SSKA,15,MS,easy,3,8.7494,1
056SSKA,15,MS,medium,4,17.6442,0.8
056SSKA,15,MS,hard,5,17.0683,0.7142857142857143
056SSKA,16,MS,easy,3,10.6675,1
056SSKA,16,MS,medium,5,14.511,1
056SSKA,16,MS,hard,5,23.7372,0.7142857142857143
058SSAB,1,MS,easy,3,11.3823,1
058SSAB,1,MS,medium,4,21.163,0.8
058SSAB,1,MS,hard,6,38.0841,0.8571428571428571
058SSAB,2,MS,easy,3,9.8772,1
058SSAB,2,MS,medium,5,19.1346,1
058SSAB,2,MS,hard,5,32.7002,0.7142857142857143
058SSAB,3,MS,easy,3,9.2501,1
058SSAB,3,MS,medium,5,19.6885,1
058SSAB,3,MS,hard,7,45.9341,1
058SSAB,4,MS,easy,3,12.8722,1
058SSAB,4,MS,medium,5,19.0349,1
058SSAB,4,MS,hard,6,45.3843,0.8571428571428571
058SSAB,5,MS,easy,3,10.8338,1
058SSAB,5,MS,medium,5,18.3171,1
058SSAB,5,MS,hard,5,33.9495,0.7142857142857143
058SSAB,6,MS,easy,3,11.7716,1
058SSAB,6,MS,medium,5,24.9234,1
058SSAB,6,MS,hard,7,30.7009,1
058SSAB,7,MS,easy,3,10.2893,1
058SSAB,7,MS,medium,5,93.7941,1
058SSAB,7,MS,hard,7,35.6832,1
058SSAB,8,MS,easy,3,13.4433,1
058SSAB,8,MS,medium,4,29.3003,0.8
058SSAB,8,MS,hard,5,28.3497,0.7142857142857143
058SSAB,9,MS,easy,3,12.3235,1
058SSAB,9,MS,medium,5,22.1006,1
058SSAB,9,MS,hard,6,39.8841,0.8571428571428571
058SSAB,10,MS,easy,3,9.9997,1
058SSAB,10,MS,medium,5,19.817,1
058SSAB,10,MS,hard,7,25.7838,1
058SSAB,11,MS,easy,3,10.4681,1
058SSAB,11,MS,medium,5,18.3334,1
058SSAB,11,MS,hard,5,69.4007,0.7142857142857143
058SSAB,12,MS,easy,3,11.0656,1
058SSAB,12,MS,medium,5,16.3342,1
058SSAB,12,MS,hard,5,47.5671,0.7142857142857143
058SSAB,13,MS,easy,3,15.6271,1
058SSAB,13,MS,medium,5,32.1431,1
058SSAB,13,MS,hard,7,27.0739,1
058SSAB,14,MS,easy,3,13.1598,1
058SSAB,14,MS,medium,5,19.4096,1
058SSAB,14,MS,hard,7,24.7994,1
058SSAB,15,MS,easy,2,10.1447,0.6666666666666666
058SSAB,15,MS,medium,5,30.1052,1
058SSAB,15,MS,hard,7,28.8334,1
058SSAB,16,MS,easy,3,11.3008,1
058SSAB,16,MS,medium,5,15.5835,1
058SSAB,16,MS,hard,5,26.3939,0.7142857142857143
059SSAS,1,MS,easy,3,9.6751,1
059SSAS,1,MS,medium,5,18.3505,1
059SSAS,1,MS,hard,3,17.5884,0.42857142857142855
059SSAS,2,MS,easy,3,11.2071,1
059SSAS,2,MS,medium,5,53.5714,1
059SSAS,2,MS,hard,5,22.5305,0.7142857142857143
059SSAS,3,MS,easy,3,12.6887,1
059SSAS,3,MS,medium,5,14.787,1
059SSAS,3,MS,hard,4,17.8342,0.5714285714285714
059SSAS,4,MS,easy,3,10.6901,1
059SSAS,4,MS,medium,3,16.0023,0.6
059SSAS,4,MS,hard,6,21.0815,0.8571428571428571
059SSAS,5,MS,easy,3,11.4897,1
059SSAS,5,MS,medium,4,14.3032,0.8
059SSAS,5,MS,hard,4,18.8335,0.5714285714285714
059SSAS,6,MS,easy,3,10.5908,1
059SSAS,6,MS,medium,5,18.6161,1
059SSAS,6,MS,hard,6,26.5439,0.8571428571428571
059SSAS,7,MS,easy,3,9.775,1
059SSAS,7,MS,medium,4,17.0067,0.8
059SSAS,7,MS,hard,5,22.2972,0.7142857142857143
059SSAS,8,MS,easy,3,11.923,1
059SSAS,8,MS,medium,5,17.5812,1
059SSAS,8,MS,hard,4,22.1484,0.5714285714285714
059SSAS,9,MS,easy,3,11.1068,1
059SSAS,9,MS,medium,5,14.2702,1
059SSAS,9,MS,hard,5,25.5615,0.7142857142857143
059SSAS,10,MS,easy,3,7.7926,1
059SSAS,10,MS,medium,5,13.6874,1
059SSAS,10,MS,hard,7,23.9444,1
059SSAS,11,MS,easy,3,15.4368,1
059SSAS,11,MS,medium,5,18.8836,1
059SSAS,11,MS,hard,5,15.8196,0.7142857142857143
059SSAS,12,MS,easy,3,11.2071,1
059SSAS,12,MS,medium,5,13.6047,1
059SSAS,12,MS,hard,6,23.2799,0.8571428571428571
059SSAS,13,MS,easy,3,12.3723,1
059SSAS,13,MS,medium,2,17.5179,0.4
059SSAS,13,MS,hard,4,12.0397,0.5714285714285714
059SSAS,14,MS,easy,3,10.8894,1
059SSAS,14,MS,medium,5,17.6011,1
059SSAS,14,MS,hard,7,22.4804,1
059SSAS,15,MS,easy,3,10.9406,1
059SSAS,15,MS,medium,5,16.6186,1
059SSAS,15,MS,hard,7,23.7634,1
059SSAS,16,MS,easy,3,11.8888,1
059SSAS,16,MS,medium,2,11.4061,0.4
059SSAS,16,MS,hard,3,30.0406,0.42857142857142855
062SSON,1,MS,easy,3,19.1108,1
062SSON,1,MS,medium,5,32.4114,1
062SSON,1,MS,hard,4,14.6267,0.5714285714285714
062SSON,2,MS,easy,2,14.9931,0.6666666666666666
062SSON,2,MS,medium,5,40.2556,1
062SSON,2,MS,hard,5,19.8775,0.7142857142857143
062SSON,3,MS,easy,0,0.0191,0
062SSON,3,MS,medium,5,26.8916,1
062SSON,3,MS,hard,4,16.6191,0.5714285714285714
062SSON,4,MS,easy,0,18.2171,0
062SSON,4,MS,medium,5,21.2744,1
062SSON,4,MS,hard,4,23.069,0.5714285714285714
062SSON,5,MS,easy,3,18.582,1
062SSON,5,MS,medium,5,35.0368,1
062SSON,5,MS,hard,4,16.5538,0.5714285714285714
062SSON,6,MS,easy,3,20.3769,1
062SSON,6,MS,medium,5,38.4288,1
062SSON,6,MS,hard,2,14.2269,0.2857142857142857
062SSON,7,MS,easy,3,12.2321,1
062SSON,7,MS,medium,5,25.8281,1
062SSON,7,MS,hard,5,17.1187,0.7142857142857143
062SSON,8,MS,easy,3,12.4653,1
062SSON,8,MS,medium,5,27.3238,1
062SSON,8,MS,hard,3,22.5035,0.42857142857142855
062SSON,9,MS,easy,3,14.9249,1
062SSON,9,MS,medium,5,28.0884,1
062SSON,9,MS,hard,2,13.8262,0.2857142857142857
062SSON,10,MS,easy,0,1.3848,0
062SSON,10,MS,medium,5,22.0724,1
062SSON,10,MS,hard,3,15.7221,0.42857142857142855
062SSON,11,MS,easy,3,12.9312,1
062SSON,11,MS,medium,5,35.9665,1
062SSON,11,MS,hard,4,21.3757,0.5714285714285714
062SSON,12,MS,easy,3,12.7656,1
062SSON,12,MS,medium,5,29.6175,1
062SSON,12,MS,hard,6,30.9461,0.8571428571428571
062SSON,13,MS,easy,3,12.1992,1
062SSON,13,MS,medium,5,27.4906,1
062SSON,13,MS,hard,6,20.7072,0.8571428571428571
062SSON,14,MS,easy,3,13.8947,1
062SSON,14,MS,medium,5,43.8117,1
062SSON,14,MS,hard,1,7.6428,0.14285714285714285
062SSON,15,MS,easy,3,14.6255,1
062SSON,15,MS,medium,5,23.3341,1
062SSON,15,MS,hard,3,12.3645,0.42857142857142855
062SSON,16,MS,easy,3,18.2825,1
062SSON,16,MS,medium,5,19.8107,1
062SSON,16,MS,hard,3,15.0228,0.42857142857142855
063SSMP,1,MS,easy,3,7.81,1
063SSMP,1,MS,medium,5,16.336,1
063SSMP,1,MS,hard,3,14.863,0.42857142857142855
063SSMP,2,MS,easy,3,9.994,1
063SSMP,2,MS,medium,5,16.155,1
063SSMP,2,MS,hard,3,16.564,0.42857142857142855
063SSMP,3,MS,easy,3,7.577,1
063SSMP,3,MS,medium,5,15.588,1
063SSMP,3,MS,hard,5,12.085,0.7142857142857143
063SSMP,4,MS,easy,3,7.86,1
063SSMP,4,MS,medium,4,12.657,0.8
063SSMP,4,MS,hard,5,16.931,0.7142857142857143
063SSMP,5,MS,easy,3,7.094,1
063SSMP,5,MS,medium,5,14.872,1
063SSMP,5,MS,hard,5,17.965,0.7142857142857143
063SSMP,6,MS,easy,3,7.279,1
063SSMP,6,MS,medium,5,14.406,1
063SSMP,6,MS,hard,3,17.144,0.42857142857142855
063SSMP,7,MS,easy,3,6.895,1
063SSMP,7,MS,medium,4,23.249,0.8
063SSMP,7,MS,hard,3,16.595,0.42857142857142855
063SSMP,8,MS,easy,3,8.022,1
063SSMP,8,MS,medium,4,13.306,0.8
063SSMP,8,MS,hard,4,14.572,0.5714285714285714
063SSMP,9,MS,easy,3,8.647,1
063SSMP,9,MS,medium,4,14.706,0.8
063SSMP,9,MS,hard,5,17.569,0.7142857142857143
063SSMP,10,MS,easy,3,8.76,1
063SSMP,10,MS,medium,4,21.601,0.8
063SSMP,10,MS,hard,5,18.376,0.7142857142857143
063SSMP,11,MS,easy,3,7.156,1
063SSMP,11,MS,medium,5,14.656,1
063SSMP,11,MS,hard,4,15.281,0.5714285714285714
063SSMP,12,MS,easy,3,9.113,1
063SSMP,12,MS,medium,4,15.007,0.8
063SSMP,12,MS,hard,4,15.825,0.5714285714285714
063SSMP,13,MS,easy,3,8.431,1
063SSMP,13,MS,medium,5,14.238,1
063SSMP,13,MS,hard,6,19.615,0.8571428571428571
063SSMP,14,MS,easy,3,7.46,1
063SSMP,14,MS,medium,5,12.924,1
063SSMP,14,MS,hard,5,20.196,0.7142857142857143
063SSMP,15,MS,easy,3,7.061,1
063SSMP,15,MS,medium,3,16.201,0.6
063SSMP,15,MS,hard,5,28.576,0.7142857142857143
063SSMP,16,MS,easy,3,8.582,1
063SSMP,16,MS,medium,4,27.563,0.8
063SSMP,16,MS,hard,2,16.399,0.2857142857142857
064SSAB,1,MS,easy,3,11.7245,1
064SSAB,1,MS,medium,5,13.4981,1
064SSAB,1,MS,hard,4,22.3321,0.5714285714285714
064SSAB,2,MS,easy,3,10.9993,1
064SSAB,2,MS,medium,4,16.7323,0.8
064SSAB,2,MS,hard,6,28.3151,0.8571428571428571
064SSAB,3,MS,easy,3,14.2654,1
064SSAB,3,MS,medium,5,16.9158,1
064SSAB,3,MS,hard,3,21.6988,0.42857142857142855
064SSAB,4,MS,easy,3,9.265900001,1
064SSAB,4,MS,medium,5,13.582,1
064SSAB,4,MS,hard,4,36.9483,0.5714285714285714
064SSAB,5,MS,easy,3,10.4159,1
064SSAB,5,MS,medium,5,21.0653,1
064SSAB,5,MS,hard,2,15.9863,0.2857142857142857
064SSAB,6,MS,easy,3,9.0826,1
064SSAB,6,MS,medium,5,12.8322,1
064SSAB,6,MS,hard,3,21.7696,0.42857142857142855
064SSAB,7,MS,easy,3,8.7494,1
064SSAB,7,MS,medium,4,31.9813,0.8
064SSAB,7,MS,hard,4,17.5199,0.5714285714285714
064SSAB,8,MS,easy,3,11.4491,1
064SSAB,8,MS,medium,5,12.882,1
064SSAB,8,MS,hard,4,29.9156,0.5714285714285714
064SSAB,9,MS,easy,3,10.0992,1
064SSAB,9,MS,medium,4,28.1649,0.8
064SSAB,9,MS,hard,5,20.0487,0.7142857142857143
064SSAB,10,MS,easy,3,8.9994,1
064SSAB,10,MS,medium,5,15.4991,1
064SSAB,10,MS,hard,3,28.5694,0.42857142857142855
064SSAB,11,MS,easy,3,13.9325,1
064SSAB,11,MS,medium,5,17.6659,1
064SSAB,11,MS,hard,4,27.5661,0.5714285714285714
064SSAB,12,MS,easy,3,8.6829,1
064SSAB,12,MS,medium,4,27.3818,0.8
064SSAB,12,MS,hard,4,28.9853,0.5714285714285714
064SSAB,13,MS,easy,3,9.3824,1
064SSAB,13,MS,medium,5,18.9483,1
064SSAB,13,MS,hard,3,19.045,0.42857142857142855
064SSAB,14,MS,easy,3,10.3157,1
064SSAB,14,MS,medium,5,18.3654,1
064SSAB,14,MS,hard,5,17.9321,0.7142857142857143
064SSAB,15,MS,easy,3,8.815799999,1
064SSAB,15,MS,medium,4,14.5824,0.8
064SSAB,15,MS,hard,5,17.1532,0.7142857142857143
064SSAB,16,MS,easy,3,7.6493,1
064SSAB,16,MS,medium,4,16.0822,0.8
064SSAB,16,MS,hard,3,16.6617,0.42857142857142855
065SSTM,1,MS,easy,3,10.3856,1
065SSTM,1,MS,medium,5,16.4463,1
065SSTM,1,MS,hard,5,16.3803,0.7142857142857143
065SSTM,2,MS,easy,3,8.6813,1
065SSTM,2,MS,medium,4,22.9781,0.8
065SSTM,2,MS,hard,5,17.1465,0.7142857142857143
065SSTM,3,MS,easy,3,10.0978,1
065SSTM,3,MS,medium,5,15.8131,1
065SSTM,3,MS,hard,3,14.4969,0.42857142857142855
065SSTM,4,MS,easy,3,8.4262,1
065SSTM,4,MS,medium,5,15.8962,1
065SSTM,4,MS,hard,5,14.7131,0.7142857142857143
065SSTM,5,MS,easy,3,8.453,1
065SSTM,5,MS,medium,5,15.5969,1
065SSTM,5,MS,hard,6,19.3459,0.8571428571428571
065SSTM,6,MS,easy,3,7.9509,1
065SSTM,6,MS,medium,5,15.9457,1
065SSTM,6,MS,hard,4,16.913,0.5714285714285714
065SSTM,7,MS,easy,3,8.5968,1
065SSTM,7,MS,medium,4,19.0945,0.8
065SSTM,7,MS,hard,5,13.3799,0.7142857142857143
065SSTM,8,MS,easy,3,9.531,1
065SSTM,8,MS,medium,5,13.5797,1
065SSTM,8,MS,hard,5,14.9294,0.7142857142857143
065SSTM,9,MS,easy,3,11.1119,1
065SSTM,9,MS,medium,5,14.3474,1
065SSTM,9,MS,hard,5,15.7639,0.7142857142857143
065SSTM,10,MS,easy,3,8.6821,1
065SSTM,10,MS,medium,5,16.8959,1
065SSTM,10,MS,hard,5,18.4626,0.7142857142857143
065SSTM,11,MS,easy,3,10.5642,1
065SSTM,11,MS,medium,5,13.4136,1
065SSTM,11,MS,hard,4,10.9312,0.5714285714285714
065SSTM,12,MS,easy,3,9.3474,1
065SSTM,12,MS,medium,4,15.1453,0.8
065SSTM,12,MS,hard,4,19.062,0.5714285714285714
065SSTM,13,MS,easy,3,8.6982,1
065SSTM,13,MS,medium,3,20.028,0.6
065SSTM,13,MS,hard,7,25.8443,1
065SSTM,14,MS,easy,3,9.5857,1
065SSTM,14,MS,medium,4,13.7303,0.8
065SSTM,14,MS,hard,5,19.8947,0.7142857142857143
065SSTM,15,MS,easy,3,7.5975,1
065SSTM,15,MS,medium,5,22.2115,1
065SSTM,15,MS,hard,2,11.3302,0.2857142857142857
065SSTM,16,MS,easy,3,7.3645,1
065SSTM,16,MS,medium,5,14.9465,1
065SSTM,16,MS,hard,5,14.0631,0.7142857142857143
067SSDA,1,MS,easy,3,11.6182,1
067SSDA,1,MS,medium,4,11.4188,0.8
067SSDA,1,MS,hard,3,13.5183,0.42857142857142855
067SSDA,2,MS,easy,3,7.5222,1
067SSDA,2,MS,medium,4,14.816,0.8
067SSDA,2,MS,hard,2,12.2777,0.2857142857142857
067SSDA,3,MS,easy,3,9.1206,1
067SSDA,3,MS,medium,4,12.4605,0.8
067SSDA,3,MS,hard,4,19.1889,0.5714285714285714
067SSDA,4,MS,easy,3,7.6982,1
067SSDA,4,MS,medium,3,11.2522,0.6
067SSDA,4,MS,hard,3,20.6282,0.42857142857142855
067SSDA,5,MS,easy,3,11.5121,1
067SSDA,5,MS,medium,4,18.1512,0.8
067SSDA,5,MS,hard,3,15.8872,0.42857142857142855
067SSDA,6,MS,easy,3,8.5759,1
067SSDA,6,MS,medium,2,14.3548,0.4
067SSDA,6,MS,hard,3,14.3382,0.42857142857142855
067SSDA,7,MS,easy,2,15.0546,0.6666666666666666
067SSDA,7,MS,medium,2,11.0407,0.4
067SSDA,7,MS,hard,4,11.8237,0.5714285714285714
067SSDA,8,MS,easy,3,12.1233,1
067SSDA,8,MS,medium,3,15.6152,0.6
067SSDA,8,MS,hard,3,14.6764,0.42857142857142855
067SSDA,9,MS,easy,3,8.215,1
067SSDA,9,MS,medium,2,10.5791,0.4
067SSDA,9,MS,hard,3,9.9247,0.42857142857142855
067SSDA,10,MS,easy,3,11.4232,1
067SSDA,10,MS,medium,5,17.7516,1
067SSDA,10,MS,hard,4,17.0903,0.5714285714285714
067SSDA,11,MS,easy,3,9.0474,1
067SSDA,11,MS,medium,3,10.1631,0.6
067SSDA,11,MS,hard,4,14.004,0.5714285714285714
067SSDA,12,MS,easy,3,8.2147,1
067SSDA,12,MS,medium,3,14.0715,0.6
067SSDA,12,MS,hard,2,11.9615,0.2857142857142857
067SSDA,13,MS,easy,3,7.3107,1
067SSDA,13,MS,medium,3,11.5952,0.6
067SSDA,13,MS,hard,3,25.6617,0.42857142857142855
067SSDA,14,MS,easy,2,9.8302,0.6666666666666666
067SSDA,14,MS,medium,3,12.6447,0.6
067SSDA,14,MS,hard,4,14.6202,0.5714285714285714
067SSDA,15,MS,easy,3,12.8438,1
067SSDA,15,MS,medium,5,13.4557,1
067SSDA,15,MS,hard,4,13.5002,0.5714285714285714
067SSDA,16,MS,easy,3,10.6293,1
067SSDA,16,MS,medium,5,19.0724,1
067SSDA,16,MS,hard,2,13.9096,0.2857142857142857
068SSMT,1,MS,easy,3,8.365,1
068SSMT,1,MS,medium,5,14.017,1
068SSMT,1,MS,hard,5,12.748,0.7142857142857143
068SSMT,2,MS,easy,3,6.999,1
068SSMT,2,MS,medium,5,10.665,1
068SSMT,2,MS,hard,3,18.149,0.42857142857142855
068SSMT,3,MS,easy,3,7.518,1
068SSMT,3,MS,medium,5,10.064,1
068SSMT,3,MS,hard,4,18.517,0.5714285714285714
068SSMT,4,MS,easy,3,5.383,1
068SSMT,4,MS,medium,5,14.615,1
068SSMT,4,MS,hard,5,16.332,0.7142857142857143
068SSMT,5,MS,easy,3,6.215,1
068SSMT,5,MS,medium,5,10.966,1
068SSMT,5,MS,hard,2,19.465,0.2857142857142857
068SSMT,6,MS,easy,3,6.982,1
068SSMT,6,MS,medium,5,13.564,1
068SSMT,6,MS,hard,3,9.582,0.42857142857142855
068SSMT,7,MS,easy,3,6.433,1
068SSMT,7,MS,medium,5,9.297,1
068SSMT,7,MS,hard,5,8.314,0.7142857142857143
068SSMT,8,MS,easy,3,5.748,1
068SSMT,8,MS,medium,5,9.015,1
068SSMT,8,MS,hard,5,14.849,0.7142857142857143
068SSMT,9,MS,easy,3,5.783,1
068SSMT,9,MS,medium,5,7.866,1
068SSMT,9,MS,hard,5,11.348,0.7142857142857143
068SSMT,10,MS,easy,3,6.366,1
068SSMT,10,MS,medium,5,7.781,1
068SSMT,10,MS,hard,5,8.849,0.7142857142857143
068SSMT,11,MS,easy,3,13.55,1
068SSMT,11,MS,medium,5,12.033,1
068SSMT,11,MS,hard,5,10.882,0.7142857142857143
068SSMT,12,MS,easy,3,5.133,1
068SSMT,12,MS,medium,5,8.565,1
068SSMT,12,MS,hard,5,10.015,0.7142857142857143
068SSMT,13,MS,easy,3,6.766,1
068SSMT,13,MS,medium,5,11.181,1
068SSMT,13,MS,hard,5,13.699,0.7142857142857143
068SSMT,14,MS,easy,3,7.883,1
068SSMT,14,MS,medium,5,10.332,1
068SSMT,14,MS,hard,2,9.465,0.2857142857142857
068SSMT,15,MS,easy,3,5.666,1
068SSMT,15,MS,medium,5,10.949,1
068SSMT,15,MS,hard,5,9.631,0.7142857142857143
068SSMT,16,MS,easy,3,5.216,1
068SSMT,16,MS,medium,5,8.515,1
068SSMT,16,MS,hard,5,10.115,0.7142857142857143
069SSMV,1,MS,easy,3,16.947,1
069SSMV,1,MS,medium,5,14.081,1
069SSMV,1,MS,hard,5,15.937,0.7142857142857143
069SSMV,2,MS,easy,3,9.329,1
069SSMV,2,MS,medium,5,35.154,1
069SSMV,2,MS,hard,3,21.852,0.42857142857142855
069SSMV,3,MS,easy,3,10.156,1
069SSMV,3,MS,medium,5,20.74,1
069SSMV,3,MS,hard,3,19.979,0.42857142857142855
069SSMV,4,MS,easy,3,24.049,1
069SSMV,4,MS,medium,5,13.772,1
069SSMV,4,MS,hard,1,30.13,0.14285714285714285
069SSMV,5,MS,easy,3,8.627,1
069SSMV,5,MS,medium,5,19.225,1
069SSMV,5,MS,hard,2,15.686,0.2857142857142857
069SSMV,6,MS,easy,3,8.955,1
069SSMV,6,MS,medium,3,27.4,0.6
069SSMV,6,MS,hard,4,17.412,0.5714285714285714
069SSMV,7,MS,easy,3,8.096,1
069SSMV,7,MS,medium,5,21.903,1
069SSMV,7,MS,hard,4,14.764,0.5714285714285714
069SSMV,8,MS,easy,3,9.674,1
069SSMV,8,MS,medium,5,18.018,1
069SSMV,8,MS,hard,6,24.839,0.8571428571428571
069SSMV,9,MS,easy,3,9.889,1
069SSMV,9,MS,medium,4,39.774,0.8
069SSMV,9,MS,hard,4,19.454,0.5714285714285714
069SSMV,10,MS,easy,3,15.925,1
069SSMV,10,MS,medium,4,16.992,0.8
069SSMV,10,MS,hard,4,23.862,0.5714285714285714
069SSMV,11,MS,easy,3,10.236,1
069SSMV,11,MS,medium,5,25.887,1
069SSMV,11,MS,hard,4,17.58,0.5714285714285714
069SSMV,12,MS,easy,3,10.476,1
069SSMV,12,MS,medium,4,30.165,0.8
069SSMV,12,MS,hard,4,21.203,0.5714285714285714
069SSMV,13,MS,easy,3,9.513,1
069SSMV,13,MS,medium,5,22.237,1
069SSMV,13,MS,hard,4,20.702,0.5714285714285714
069SSMV,14,MS,easy,3,10.144,1
069SSMV,14,MS,medium,5,29.386,1
069SSMV,14,MS,hard,2,32.292,0.2857142857142857
069SSMV,15,MS,easy,3,24.449,1
069SSMV,15,MS,medium,3,34.987,0.6
069SSMV,15,MS,hard,6,32.158,0.8571428571428571
069SSMV,16,MS,easy,3,8.905,1
069SSMV,16,MS,medium,5,14.153,1
069SSMV,16,MS,hard,4,15.085,0.5714285714285714
070SSAK,1,MS,easy,3,13.1088,1
070SSAK,1,MS,medium,4,16.0867,0.8
070SSAK,1,MS,hard,3,18.3517,0.42857142857142855
070SSAK,2,MS,easy,3,10.4246,1
070SSAK,2,MS,medium,3,11.1238,0.6
070SSAK,2,MS,hard,4,15.0195,0.5714285714285714
070SSAK,3,MS,easy,3,11.2566,1
070SSAK,3,MS,medium,5,14.7863,1
070SSAK,3,MS,hard,1,17.6177,0.14285714285714285
070SSAK,4,MS,easy,3,8.926,1
070SSAK,4,MS,medium,5,20.6154,1
070SSAK,4,MS,hard,5,19.3164,0.7142857142857143
070SSAK,5,MS,easy,3,9.9581,1
070SSAK,5,MS,medium,5,19.3166,1
070SSAK,5,MS,hard,4,28.2758,0.5714285714285714
070SSAK,6,MS,easy,3,10.4575,1
070SSAK,6,MS,medium,5,17.4186,1
070SSAK,6,MS,hard,4,16.8181,0.5714285714285714
070SSAK,7,MS,easy,3,9.4598,1
070SSAK,7,MS,medium,5,17.8508,1
070SSAK,7,MS,hard,5,18.0172,0.7142857142857143
070SSAK,8,MS,easy,3,11.2242,1
070SSAK,8,MS,medium,4,17.6177,0.8
070SSAK,8,MS,hard,4,16.6542,0.5714285714285714
070SSAK,9,MS,easy,3,10.8574,1
070SSAK,9,MS,medium,5,18.4508,1
070SSAK,9,MS,hard,5,17.6525,0.7142857142857143
070SSAK,10,MS,easy,3,12.5558,1
070SSAK,10,MS,medium,5,17.2853,1
070SSAK,10,MS,hard,4,19.9491,0.5714285714285714
070SSAK,11,MS,easy,3,9.292,1
070SSAK,11,MS,medium,5,33.6722,1
070SSAK,11,MS,hard,5,18.2844,0.7142857142857143
070SSAK,12,MS,easy,3,11.7898,1
070SSAK,12,MS,medium,3,23.379,0.6
070SSAK,12,MS,hard,3,11.2234,0.42857142857142855
070SSAK,13,MS,easy,3,19.9164,1
070SSAK,13,MS,medium,3,14.72,0.6
070SSAK,13,MS,hard,5,18.384,0.7142857142857143
070SSAK,14,MS,easy,3,12.7558,1
070SSAK,14,MS,medium,5,16.2187,1
070SSAK,14,MS,hard,5,18.1507,0.7142857142857143
070SSAK,15,MS,easy,3,10.7238,1
070SSAK,15,MS,medium,4,18.4169,0.8
070SSAK,15,MS,hard,4,15.3868,0.5714285714285714
070SSAK,16,MS,easy,3,11.2892,1
070SSAK,16,MS,medium,5,17.4835,1
070SSAK,16,MS,hard,3,17.3185,0.42857142857142855
074SSKS,1,MS,easy,3,11.197,1
074SSKS,1,MS,medium,4,14.6,0.8
074SSKS,1,MS,hard,3,10.787,0.42857142857142855
074SSKS,2,MS,easy,3,9.65,1
074SSKS,2,MS,medium,5,15.482,1
074SSKS,2,MS,hard,5,17.849,0.7142857142857143
074SSKS,3,MS,easy,3,20.89,1
074SSKS,3,MS,medium,5,12.667,1
074SSKS,3,MS,hard,4,19.916,0.5714285714285714
074SSKS,4,MS,easy,3,9.564,1
074SSKS,4,MS,medium,5,15.049,1
074SSKS,4,MS,hard,6,17.617,0.8571428571428571
074SSKS,5,MS,easy,3,7.83,1
074SSKS,5,MS,medium,5,17.283,1
074SSKS,5,MS,hard,5,20.267,0.7142857142857143
074SSKS,6,MS,easy,3,7.416,1
074SSKS,6,MS,medium,5,16.382,1
074SSKS,6,MS,hard,7,18.468,1
074SSKS,7,MS,easy,3,9.649,1
074SSKS,7,MS,medium,5,22.383,1
074SSKS,7,MS,hard,7,17.064,1
074SSKS,8,MS,easy,3,9.016,1
074SSKS,8,MS,medium,5,13.765,1
074SSKS,8,MS,hard,5,28.484,0.7142857142857143
074SSKS,9,MS,easy,3,9.18,1
074SSKS,9,MS,medium,5,21.331,1
074SSKS,9,MS,hard,6,20.616,0.8571428571428571
074SSKS,10,MS,easy,3,28.599,1
074SSKS,10,MS,medium,5,11.134,1
074SSKS,10,MS,hard,7,22.166,1
074SSKS,11,MS,easy,3,7.165,1
074SSKS,11,MS,medium,5,12.732,1
074SSKS,11,MS,hard,5,24.167,0.7142857142857143
074SSKS,12,MS,easy,3,9.165,1
074SSKS,12,MS,medium,4,13.215,0.8
074SSKS,12,MS,hard,6,13.666,0.8571428571428571
074SSKS,13,MS,easy,3,8.465,1
074SSKS,13,MS,medium,5,11.498,1
074SSKS,13,MS,hard,6,25.849,0.8571428571428571
074SSKS,14,MS,easy,3,9.35,1
074SSKS,14,MS,medium,5,11.516,1
074SSKS,14,MS,hard,6,18.631,0.8571428571428571
074SSKS,15,MS,easy,3,8.698,1
074SSKS,15,MS,medium,4,17.764,0.8
074SSKS,15,MS,hard,5,22.316,0.7142857142857143
074SSKS,16,MS,easy,3,9.281,1
074SSKS,16,MS,medium,5,12.428,1
074SSKS,16,MS,hard,4,15.533,0.5714285714285714
076SSRK,1,MS,easy,0,18.398,0
076SSRK,1,MS,medium,0,46.6457,0
076SSRK,1,MS,hard,0,30.5786,0
076SSRK,2,MS,easy,0,18.1639,0
076SSRK,2,MS,medium,0,48.9784,0
076SSRK,2,MS,hard,0,22.5137,0
076SSRK,3,MS,easy,0,15.3982,0
076SSRK,3,MS,medium,0,32.3673,0
076SSRK,3,MS,hard,0,20.7318,0
076SSRK,4,MS,easy,0,17.6152,0
076SSRK,4,MS,medium,0,40.7822,0
076SSRK,4,MS,hard,0,26.5634,0
076SSRK,5,MS,easy,0,29.1129,0
076SSRK,5,MS,medium,0,33.3667,0
076SSRK,5,MS,hard,0,18.2014,0
076SSRK,6,MS,easy,0,25.0344,0
076SSRK,6,MS,medium,0,30.9626,0
076SSRK,6,MS,hard,0,24.5321,0
076SSRK,7,MS,easy,0,46.6447,0
076SSRK,7,MS,medium,0,35.234,0
076SSRK,7,MS,hard,0,1062.971,0
076SSRK,8,MS,easy,0,22.6954,0
076SSRK,8,MS,medium,0,31.0916,0
076SSRK,8,MS,hard,0,32.0076,0
076SSRK,9,MS,easy,0,36.829,0
076SSRK,9,MS,medium,0,27.8334,0
076SSRK,9,MS,hard,0,18.6127,0
076SSRK,10,MS,easy,0,23.1798,0
076SSRK,10,MS,medium,0,59.2769,0
076SSRK,10,MS,hard,0,20.2108,0
076SSRK,11,MS,easy,0,24.3302,0
076SSRK,11,MS,medium,0,32.4632,0
076SSRK,11,MS,hard,0,24.3151,0
076SSRK,12,MS,easy,0,20.748,0
076SSRK,12,MS,medium,0,35.1427,0
076SSRK,12,MS,hard,0,28.4297,0
076SSRK,13,MS,easy,0,21.2646,0
076SSRK,13,MS,medium,0,30.4133,0
076SSRK,13,MS,hard,0,32.0702,0
076SSRK,14,MS,easy,0,16.7831,0
076SSRK,14,MS,medium,0,28.4467,0
076SSRK,14,MS,hard,0,35.3737,0
076SSRK,15,MS,easy,0,27.2971,0
076SSRK,15,MS,medium,0,30.8621,0
076SSRK,15,MS,hard,0,33.7272,0
076SSRK,16,MS,easy,0,35.1927,0
076SSRK,16,MS,medium,0,31.0154,0
076SSRK,16,MS,hard,0,25.2302,0
077SSKK,1,MS,easy,3,31.719,1
077SSKK,1,MS,medium,5,18.7376,1
077SSKK,1,MS,hard,7,30.5293,1
077SSKK,2,MS,easy,3,12.3639,1
077SSKK,2,MS,medium,5,25.1381,1
077SSKK,2,MS,hard,7,33.7975,1
077SSKK,3,MS,easy,3,12.5124,1
077SSKK,3,MS,medium,5,27.0495,1
077SSKK,3,MS,hard,7,37.0335,1
077SSKK,4,MS,easy,3,10.9757,1
077SSKK,4,MS,medium,5,22.5423,1
077SSKK,4,MS,hard,7,62.3779,1
077SSKK,5,MS,easy,3,12.3338,1
077SSKK,5,MS,medium,5,24.43,1
077SSKK,5,MS,hard,6,49.5089,0.8571428571428571
077SSKK,6,MS,easy,3,8.6528,1
077SSKK,6,MS,medium,5,35.326,1
077SSKK,6,MS,hard,4,32.1522,0.5714285714285714
077SSKK,7,MS,easy,3,8.0489,1
077SSKK,7,MS,medium,5,21.4245,1
077SSKK,7,MS,hard,5,27.647,0.7142857142857143
077SSKK,8,MS,easy,3,8.6669,1
077SSKK,8,MS,medium,5,21.5703,1
077SSKK,8,MS,hard,6,28.536,0.8571428571428571
077SSKK,9,MS,easy,3,11.3406,1
077SSKK,9,MS,medium,5,41.3474,1
077SSKK,9,MS,hard,6,45.1181,0.8571428571428571
077SSKK,10,MS,easy,3,13.2646,1
077SSKK,10,MS,medium,5,19.4914,1
077SSKK,10,MS,hard,5,46.1244,0.7142857142857143
077SSKK,11,MS,easy,3,8.8194,1
077SSKK,11,MS,medium,5,30.6079,1
077SSKK,11,MS,hard,7,49.9467,1
077SSKK,12,MS,easy,2,9.8684,0.6666666666666666
077SSKK,12,MS,medium,5,29.9112,1
077SSKK,12,MS,hard,7,28.309,1
077SSKK,13,MS,easy,3,14.7874,1
077SSKK,13,MS,medium,5,22.0841,1
077SSKK,13,MS,hard,6,26.9175,0.8571428571428571
077SSKK,14,MS,easy,3,9.6602,1
077SSKK,14,MS,medium,5,32.6125,1
077SSKK,14,MS,hard,7,48.4001,1
077SSKK,15,MS,easy,3,10.257,1
077SSKK,15,MS,medium,5,19.4412,1
077SSKK,15,MS,hard,6,30.904,0.8571428571428571
077SSKK,16,MS,easy,3,10.655,1
077SSKK,16,MS,medium,5,27.1609,1
077SSKK,16,MS,hard,4,55.8817,0.5714285714285714
080SSAF,1,MS,easy,3,11.7117,1
080SSAF,1,MS,medium,5,18.215,1
080SSAF,1,MS,hard,4,17.8144,0.5714285714285714
080SSAF,2,MS,easy,3,11.0989,1
080SSAF,2,MS,medium,5,25.9971,1
080SSAF,2,MS,hard,3,15.778,0.42857142857142855
080SSAF,3,MS,easy,3,12.0499,1
080SSAF,3,MS,medium,5,23.3136,1
080SSAF,3,MS,hard,4,14.5715,0.5714285714285714
080SSAF,4,MS,easy,3,11.4814,1
080SSAF,4,MS,medium,5,21.721800000000002,1
080SSAF,4,MS,hard,5,18.5629,0.7142857142857143
080SSAF,5,MS,easy,3,10.4341,1
080SSAF,5,MS,medium,5,24.8129,1
080SSAF,5,MS,hard,5,19.5123,0.7142857142857143
080SSAF,6,MS,easy,3,11.3551,1
080SSAF,6,MS,medium,5,20.8194,1
080SSAF,6,MS,hard,6,24.2886,0.8571428571428571
080SSAF,7,MS,easy,3,13.7055,1
080SSAF,7,MS,medium,5,31.5273,1
080SSAF,7,MS,hard,5,18.554,0.7142857142857143
080SSAF,8,MS,easy,3,9.791200001,1
080SSAF,8,MS,medium,5,21.7274,1
080SSAF,8,MS,hard,4,20.0214,0.5714285714285714
080SSAF,9,MS,easy,3,11.1151,1
080SSAF,9,MS,medium,5,21.0784,1
080SSAF,9,MS,hard,4,18.569,0.5714285714285714
080SSAF,10,MS,easy,3,9.9841,1
080SSAF,10,MS,medium,5,23.5479,1
080SSAF,10,MS,hard,5,15.4642,0.7142857142857143
080SSAF,11,MS,easy,3,15.0136,1
080SSAF,11,MS,medium,5,24.2945,1
080SSAF,11,MS,hard,6,25.1128,0.8571428571428571
080SSAF,12,MS,easy,3,11.6818,1
080SSAF,12,MS,medium,5,19.9307,1
080SSAF,12,MS,hard,5,21.9719,0.7142857142857143
080SSAF,13,MS,easy,3,11.7315,1
080SSAF,13,MS,medium,5,24.3142,1
080SSAF,13,MS,hard,4,13.8969,0.5714285714285714
080SSAF,14,MS,easy,3,12.5895,1
080SSAF,14,MS,medium,5,20.4316,1
080SSAF,14,MS,hard,5,30.8419,0.7142857142857143
080SSAF,15,MS,easy,3,12.5225,1
080SSAF,15,MS,medium,5,22.8135,1
080SSAF,15,MS,hard,5,17.2701,0.7142857142857143
080SSAF,16,MS,easy,3,10.263,1
080SSAF,16,MS,medium,5,21.3469,1
080SSAF,16,MS,hard,4,17.6392,0.5714285714285714
083SSAN,1,MS,easy,3,13.9961,1
083SSAN,1,MS,medium,4,15.8786,0.8
083SSAN,1,MS,hard,4,19.8363,0.5714285714285714
083SSAN,2,MS,easy,3,11.0957,1
083SSAN,2,MS,medium,4,18.8278,0.8
083SSAN,2,MS,hard,5,34.8893,0.7142857142857143
083SSAN,3,MS,easy,3,12.2636,1
083SSAN,3,MS,medium,5,19.5782,1
083SSAN,3,MS,hard,2,15.728,0.2857142857142857
083SSAN,4,MS,easy,3,9.9289,1
083SSAN,4,MS,medium,4,22.1607,0.8
083SSAN,4,MS,hard,3,17.4953,0.42857142857142855
083SSAN,5,MS,easy,3,12.7964,1
083SSAN,5,MS,medium,4,36.0066,0.8
083SSAN,5,MS,hard,2,12.0956,0.2857142857142857
083SSAN,6,MS,easy,3,11.0964,1
083SSAN,6,MS,medium,4,16.1611,0.8
083SSAN,6,MS,hard,4,19.5105,0.5714285714285714
083SSAN,7,MS,easy,3,9.4616,1
083SSAN,7,MS,medium,4,14.8121,0.8
083SSAN,7,MS,hard,4,22.7263,0.5714285714285714
083SSAN,8,MS,easy,3,12.5796,1
083SSAN,8,MS,medium,4,16.3115,0.8
083SSAN,8,MS,hard,3,15.8283,0.42857142857142855
083SSAN,9,MS,easy,3,10.9296,1
083SSAN,9,MS,medium,5,21.2937,1
083SSAN,9,MS,hard,5,19.6948,0.7142857142857143
083SSAN,10,MS,easy,3,17.3771,1
083SSAN,10,MS,medium,3,15.3115,0.6
083SSAN,10,MS,hard,3,14.0283,0.42857142857142855
083SSAN,11,MS,easy,3,12.8122,1
083SSAN,11,MS,medium,3,16.394,0.6
083SSAN,11,MS,hard,3,11.545,0.42857142857142855
083SSAN,12,MS,easy,3,12.8629,1
083SSAN,12,MS,medium,2,9.145799999,0.4
083SSAN,12,MS,hard,4,27.6927,0.5714285714285714
083SSAN,13,MS,easy,3,11.1625,1
083SSAN,13,MS,medium,3,14.8459,0.6
083SSAN,13,MS,hard,4,16.1609,0.5714285714285714
083SSAN,14,MS,easy,3,12.1458,1
083SSAN,14,MS,medium,4,13.5289,0.8
083SSAN,14,MS,hard,5,21.4087,0.7142857142857143
083SSAN,15,MS,easy,3,11.5138,1
083SSAN,15,MS,medium,4,16.5281,0.8
083SSAN,15,MS,hard,4,17.5433,0.5714285714285714
083SSAN,16,MS,easy,3,13.8622,1
083SSAN,16,MS,medium,5,21.3435,1
083SSAN,16,MS,hard,3,14.4283,0.42857142857142855
086SSAI,1,MS,easy,3,8.0987,1
086SSAI,1,MS,medium,4,15.4795,0.8
086SSAI,1,MS,hard,5,23.1702,0.7142857142857143
086SSAI,2,MS,easy,3,8.9338,1
086SSAI,2,MS,medium,4,18.4821,0.8
086SSAI,2,MS,hard,5,21.5965,0.7142857142857143
086SSAI,3,MS,easy,3,17.1478,1
086SSAI,3,MS,medium,5,17.6827,1
086SSAI,3,MS,hard,5,24.7132,0.7142857142857143
086SSAI,4,MS,easy,2,11.9795,0.6666666666666666
086SSAI,4,MS,medium,4,16.8971,0.8
086SSAI,4,MS,hard,5,25.3131,0.7142857142857143
086SSAI,5,MS,easy,3,10.3811,1
086SSAI,5,MS,medium,5,13.9474,1
086SSAI,5,MS,hard,2,10.6666,0.2857142857142857
086SSAI,6,MS,easy,3,12.6316,1
086SSAI,6,MS,medium,5,16.6492,1
086SSAI,6,MS,hard,6,21.4137,0.8571428571428571
086SSAI,7,MS,easy,3,9.331,1
086SSAI,7,MS,medium,5,13.9304,1
086SSAI,7,MS,hard,4,19.4635,0.5714285714285714
086SSAI,8,MS,easy,3,12.7168,1
086SSAI,8,MS,medium,4,15.8331,0.8
086SSAI,8,MS,hard,3,22.5632,0.42857142857142855
086SSAI,9,MS,easy,3,14.9301,1
086SSAI,9,MS,medium,5,16.1812,1
086SSAI,9,MS,hard,2,14.6138,0.2857142857142857
086SSAI,10,MS,easy,3,8.5488,1
086SSAI,10,MS,medium,3,21.2322,0.6
086SSAI,10,MS,hard,1,14.4642,0.14285714285714285
086SSAI,11,MS,easy,2,7.8837,0.6666666666666666
086SSAI,11,MS,medium,5,14.7497,1
086SSAI,11,MS,hard,3,23.2462,0.42857142857142855
086SSAI,12,MS,easy,3,13.2307,1
086SSAI,12,MS,medium,4,17.8138,0.8
086SSAI,12,MS,hard,4,23.9484,0.5714285714285714
086SSAI,13,MS,easy,3,10.3478,1
086SSAI,13,MS,medium,4,18.2138,0.8
086SSAI,13,MS,hard,3,15.6963,0.42857142857142855
086SSAI,14,MS,easy,3,10.9816,1
086SSAI,14,MS,medium,5,15.4471,1
086SSAI,14,MS,hard,4,12.9481,0.5714285714285714
086SSAI,15,MS,easy,3,9.7673,1
086SSAI,15,MS,medium,5,18.3305,1
086SSAI,15,MS,hard,4,12.6335,0.5714285714285714
086SSAI,16,MS,easy,3,10.548400000000001,1
086SSAI,16,MS,medium,4,17.1997,0.8
086SSAI,16,MS,hard,5,14.7667,0.7142857142857143
