id,correctAns,base_pic,rotated_pic,key,is_correct,rt,task,level,trial
001SSMS,left,images/base/2_b.png,images/combined/2_a_x_0_y_0_z_315.png,right,0,2.324,MR,easy,1
001SSMS,right,images/base/15_a.png,images/combined/15_a_x_0_y_0_z_315.png,left,0,1.722,MR,easy,2
001SSMS,left,images/base/9_a.png,images/combined/9_b_x_0_y_0_z_315.png,right,0,0.924,MR,easy,3
001SSMS,right,images/base/4_b.png,images/combined/4_b_x_0_y_0_z_45.png,right,1,0.849,MR,easy,4
001SSMS,right,images/base/1_b.png,images/combined/1_b_x_0_y_0_z_45.png,right,1,1.515,MR,easy,5
001SSMS,left,images/base/12_b.png,images/combined/12_a_x_0_y_0_z_315.png,right,0,1.468,MR,easy,6
001SSMS,left,images/base/14_b.png,images/combined/14_a_x_0_y_0_z_45.png,right,0,1.505,MR,easy,7
001SSMS,right,images/base/5_a.png,images/combined/5_a_x_0_y_0_z_45.png,right,1,2.64,MR,easy,8
001SSMS,left,images/base/11_b.png,images/combined/11_a_x_0_y_0_z_315.png,right,0,20.805,MR,easy,9
001SSMS,left,images/base/3_a.png,images/combined/3_b_x_0_y_0_z_45.png,right,0,0.85,MR,easy,10
001SSMS,left,images/base/6_a.png,images/combined/6_b_x_0_y_0_z_315.png,left,1,1.19,MR,easy,11
001SSMS,left,images/base/16_a.png,images/combined/16_b_x_0_y_0_z_315.png,right,0,2.333,MR,easy,12
001SSMS,right,images/base/8_b.png,images/combined/8_b_x_0_y_0_z_45.png,right,1,0.757,MR,easy,13
001SSMS,left,images/base/10_a.png,images/combined/10_b_x_0_y_0_z_315.png,right,0,3.304,MR,easy,14
001SSMS,left,images/base/13_b.png,images/combined/13_a_x_0_y_0_z_315.png,right,0,1.107,MR,easy,15
001SSMS,left,images/base/7_b.png,images/combined/7_a_x_0_y_0_z_45.png,right,0,2.305,MR,easy,16
001SSMS,left,images/base/4_a.png,images/combined/4_b_x_315_y_0_z_90.png,right,0,2.195,MR,medium,1
001SSMS,left,images/base/11_b.png,images/combined/11_a_x_315_y_0_z_90.png,left,1,1.604,MR,medium,2
001SSMS,left,images/base/2_b.png,images/combined/2_a_x_45_y_0_z_90.png,right,0,4.018,MR,medium,3
001SSMS,right,images/base/13_a.png,images/combined/13_a_x_315_y_0_z_90.png,right,1,2.382,MR,medium,4
001SSMS,left,images/base/14_a.png,images/combined/14_b_x_45_y_0_z_90.png,left,1,1.399,MR,medium,5
001SSMS,left,images/base/12_a.png,images/combined/12_b_x_45_y_0_z_270.png,left,1,4.034,MR,medium,6
001SSMS,right,images/base/5_b.png,images/combined/5_b_x_315_y_0_z_90.png,right,1,1.808,MR,medium,7
001SSMS,right,images/base/8_b.png,images/combined/8_b_x_315_y_0_z_270.png,right,1,2.158,MR,medium,8
001SSMS,right,images/base/10_a.png,images/combined/10_a_x_315_y_0_z_90.png,right,1,2.189,MR,medium,9
001SSMS,right,images/base/15_b.png,images/combined/15_b_x_315_y_0_z_90.png,right,1,3.591,MR,medium,10
001SSMS,right,images/base/7_a.png,images/combined/7_a_x_45_y_0_z_90.png,right,1,13.617,MR,medium,11
001SSMS,right,images/base/16_b.png,images/combined/16_b_x_45_y_0_z_270.png,left,0,29.038,MR,medium,12
001SSMS,left,images/base/3_b.png,images/combined/3_a_x_45_y_0_z_270.png,right,0,1.135,MR,medium,13
001SSMS,left,images/base/6_a.png,images/combined/6_b_x_45_y_0_z_270.png,right,0,1.066,MR,medium,14
001SSMS,left,images/base/1_a.png,images/combined/1_b_x_315_y_0_z_270.png,right,0,1.285,MR,medium,15
001SSMS,left,images/base/9_b.png,images/combined/9_a_x_315_y_0_z_90.png,right,0,2.399,MR,medium,16
001SSMS,left,images/base/14_b.png,images/combined/14_a_x_270_y_0_z_90.png,right,0,2.632,MR,hard,1
001SSMS,right,images/base/13_b.png,images/combined/13_b_x_90_y_0_z_90.png,right,1,1.255,MR,hard,2
001SSMS,right,images/base/9_a.png,images/combined/9_a_x_90_y_0_z_270.png,right,1,1.199,MR,hard,3
001SSMS,right,images/base/10_a.png,images/combined/10_a_x_270_y_0_z_90.png,left,0,7.349,MR,hard,4
001SSMS,left,images/base/11_b.png,images/combined/11_a_x_270_y_0_z_90.png,right,0,2.587,MR,hard,5
001SSMS,left,images/base/5_b.png,images/combined/5_a_x_90_y_0_z_90.png,right,0,0.967,MR,hard,6
001SSMS,right,images/base/7_a.png,images/combined/7_a_x_270_y_0_z_90.png,right,1,1.319,MR,hard,7
001SSMS,left,images/base/16_a.png,images/combined/16_b_x_270_y_0_z_90.png,right,0,1.716,MR,hard,8
001SSMS,left,images/base/12_a.png,images/combined/12_b_x_270_y_0_z_90.png,right,0,1.166,MR,hard,9
001SSMS,left,images/base/15_a.png,images/combined/15_b_x_90_y_0_z_90.png,left,1,1.013,MR,hard,10
001SSMS,left,images/base/8_a.png,images/combined/8_b_x_270_y_0_z_270.png,left,1,1.801,MR,hard,11
001SSMS,left,images/base/6_b.png,images/combined/6_a_x_90_y_0_z_90.png,right,0,0.724,MR,hard,12
001SSMS,left,images/base/3_a.png,images/combined/3_b_x_270_y_0_z_90.png,left,1,0.778,MR,hard,13
001SSMS,left,images/base/1_a.png,images/combined/1_b_x_270_y_0_z_90.png,right,0,2.092,MR,hard,14
001SSMS,right,images/base/4_b.png,images/combined/4_b_x_270_y_0_z_270.png,right,1,1.019,MR,hard,15
001SSMS,left,images/base/2_b.png,images/combined/2_a_x_270_y_0_z_270.png,left,1,1.067,MR,hard,16
003SSKS,left,images/base/2_a.png,images/combined/2_b_x_0_y_0_z_45.png,left,1,4.611,MR,easy,1
003SSKS,right,images/base/14_b.png,images/combined/14_b_x_0_y_0_z_45.png,left,0,3.183,MR,easy,2
003SSKS,left,images/base/9_a.png,images/combined/9_b_x_0_y_0_z_315.png,left,1,6.972,MR,easy,3
003SSKS,left,images/base/4_a.png,images/combined/4_b_x_0_y_0_z_315.png,left,1,2.816,MR,easy,4
003SSKS,left,images/base/3_a.png,images/combined/3_b_x_0_y_0_z_45.png,left,1,5.7,MR,easy,5
003SSKS,left,images/base/10_a.png,images/combined/10_b_x_0_y_0_z_45.png,left,1,7.996,MR,easy,6
003SSKS,right,images/base/13_b.png,images/combined/13_b_x_0_y_0_z_315.png,right,1,3.971,MR,easy,7
003SSKS,left,images/base/16_a.png,images/combined/16_b_x_0_y_0_z_315.png,left,1,10.151,MR,easy,8
003SSKS,right,images/base/11_b.png,images/combined/11_b_x_0_y_0_z_315.png,right,1,7.4,MR,easy,9
003SSKS,right,images/base/6_a.png,images/combined/6_a_x_0_y_0_z_45.png,right,1,4.25,MR,easy,10
003SSKS,left,images/base/7_a.png,images/combined/7_b_x_0_y_0_z_315.png,left,1,2.532,MR,easy,11
003SSKS,right,images/base/5_a.png,images/combined/5_a_x_0_y_0_z_45.png,right,1,3.433,MR,easy,12
003SSKS,right,images/base/12_a.png,images/combined/12_a_x_0_y_0_z_45.png,right,1,3.084,MR,easy,13
003SSKS,left,images/base/15_a.png,images/combined/15_b_x_0_y_0_z_45.png,left,1,9.799,MR,easy,14
003SSKS,right,images/base/1_a.png,images/combined/1_a_x_0_y_0_z_315.png,left,0,4.485,MR,easy,15
003SSKS,left,images/base/8_b.png,images/combined/8_a_x_0_y_0_z_45.png,left,1,6.033,MR,easy,16
003SSKS,right,images/base/12_a.png,images/combined/12_a_x_45_y_0_z_90.png,right,1,1.85,MR,medium,1
003SSKS,left,images/base/13_b.png,images/combined/13_a_x_315_y_0_z_90.png,right,0,4.041,MR,medium,2
003SSKS,right,images/base/3_b.png,images/combined/3_b_x_45_y_0_z_90.png,left,0,7.285,MR,medium,3
003SSKS,right,images/base/2_a.png,images/combined/2_a_x_45_y_0_z_90.png,right,1,6.233,MR,medium,4
003SSKS,right,images/base/5_b.png,images/combined/5_b_x_315_y_0_z_90.png,right,1,11.134,MR,medium,5
003SSKS,right,images/base/11_a.png,images/combined/11_a_x_45_y_0_z_270.png,left,0,4.553,MR,medium,6
003SSKS,left,images/base/14_b.png,images/combined/14_a_x_45_y_0_z_90.png,left,1,9.368,MR,medium,7
003SSKS,left,images/base/7_a.png,images/combined/7_b_x_45_y_0_z_90.png,left,1,7.703,MR,medium,8
003SSKS,right,images/base/10_a.png,images/combined/10_a_x_45_y_0_z_270.png,left,0,9.077,MR,medium,9
003SSKS,right,images/base/16_b.png,images/combined/16_b_x_45_y_0_z_90.png,left,0,6.017,MR,medium,10
003SSKS,right,images/base/6_b.png,images/combined/6_b_x_45_y_0_z_90.png,right,1,11.802,MR,medium,11
003SSKS,left,images/base/8_a.png,images/combined/8_b_x_315_y_0_z_270.png,left,1,7.571,MR,medium,12
003SSKS,right,images/base/15_b.png,images/combined/15_b_x_315_y_0_z_90.png,right,1,6.634,MR,medium,13
003SSKS,left,images/base/4_a.png,images/combined/4_b_x_315_y_0_z_270.png,left,1,7.908,MR,medium,14
003SSKS,left,images/base/1_a.png,images/combined/1_b_x_315_y_0_z_90.png,right,0,9.233,MR,medium,15
003SSKS,right,images/base/9_b.png,images/combined/9_b_x_315_y_0_z_270.png,right,1,7.286,MR,medium,16
003SSKS,left,images/base/14_a.png,images/combined/14_b_x_90_y_0_z_270.png,left,1,11.028,MR,hard,1
003SSKS,right,images/base/6_a.png,images/combined/6_a_x_90_y_0_z_270.png,left,0,5.383,MR,hard,2
003SSKS,right,images/base/2_b.png,images/combined/2_b_x_90_y_0_z_270.png,right,1,7.151,MR,hard,3
003SSKS,right,images/base/4_b.png,images/combined/4_b_x_270_y_0_z_90.png,right,1,6.958,MR,hard,4
003SSKS,right,images/base/11_a.png,images/combined/11_a_x_270_y_0_z_90.png,right,1,4.154,MR,hard,5
003SSKS,right,images/base/13_a.png,images/combined/13_a_x_90_y_0_z_270.png,left,0,5.749,MR,hard,6
003SSKS,right,images/base/3_a.png,images/combined/3_a_x_90_y_0_z_90.png,left,0,8.176,MR,hard,7
003SSKS,left,images/base/1_b.png,images/combined/1_a_x_270_y_0_z_90.png,left,1,3.8,MR,hard,8
003SSKS,left,images/base/7_a.png,images/combined/7_b_x_270_y_0_z_270.png,left,1,7.309,MR,hard,9
003SSKS,left,images/base/5_b.png,images/combined/5_a_x_90_y_0_z_270.png,left,1,4.735,MR,hard,10
003SSKS,right,images/base/9_b.png,images/combined/9_b_x_270_y_0_z_90.png,left,0,3.517,MR,hard,11
003SSKS,right,images/base/12_b.png,images/combined/12_b_x_270_y_0_z_270.png,right,1,5.64,MR,hard,12
003SSKS,left,images/base/16_a.png,images/combined/16_b_x_270_y_0_z_90.png,left,1,5.133,MR,hard,13
003SSKS,right,images/base/15_b.png,images/combined/15_b_x_270_y_0_z_270.png,left,0,5.816,MR,hard,14
003SSKS,left,images/base/8_b.png,images/combined/8_a_x_90_y_0_z_90.png,left,1,4.823,MR,hard,15
003SSKS,right,images/base/10_b.png,images/combined/10_b_x_90_y_0_z_90.png,right,1,2.951,MR,hard,16
004SSDR,left,images/base/16_b.png,images/combined/16_a_x_0_y_0_z_315.png,left,1,8.0236,MR,easy,1
004SSDR,left,images/base/12_a.png,images/combined/12_b_x_0_y_0_z_315.png,left,1,4.8343,MR,easy,2
004SSDR,left,images/base/4_b.png,images/combined/4_a_x_0_y_0_z_45.png,left,1,4.7297,MR,easy,3
004SSDR,right,images/base/2_b.png,images/combined/2_b_x_0_y_0_z_45.png,right,1,2.5613,MR,easy,4
004SSDR,right,images/base/1_a.png,images/combined/1_a_x_0_y_0_z_315.png,right,1,2.7031,MR,easy,5
004SSDR,right,images/base/13_a.png,images/combined/13_a_x_0_y_0_z_315.png,right,1,3.4287,MR,easy,6
004SSDR,right,images/base/7_b.png,images/combined/7_b_x_0_y_0_z_45.png,right,1,3.034,MR,easy,7
004SSDR,left,images/base/8_b.png,images/combined/8_a_x_0_y_0_z_45.png,left,1,2.9424,MR,easy,8
004SSDR,right,images/base/6_a.png,images/combined/6_a_x_0_y_0_z_315.png,right,1,4.5931,MR,easy,9
004SSDR,left,images/base/15_a.png,images/combined/15_b_x_0_y_0_z_45.png,left,1,2.4961,MR,easy,10
004SSDR,right,images/base/3_b.png,images/combined/3_b_x_0_y_0_z_315.png,right,1,2.2922,MR,easy,11
004SSDR,right,images/base/11_b.png,images/combined/11_b_x_0_y_0_z_45.png,right,1,2.4375,MR,easy,12
004SSDR,right,images/base/9_b.png,images/combined/9_b_x_0_y_0_z_315.png,right,1,3.1806,MR,easy,13
004SSDR,left,images/base/5_b.png,images/combined/5_a_x_0_y_0_z_315.png,left,1,1.4381,MR,easy,14
004SSDR,right,images/base/10_a.png,images/combined/10_a_x_0_y_0_z_45.png,right,1,4.9588,MR,easy,15
004SSDR,left,images/base/14_a.png,images/combined/14_b_x_0_y_0_z_315.png,left,1,1.4183,MR,easy,16
004SSDR,left,images/base/13_b.png,images/combined/13_a_x_315_y_0_z_270.png,left,1,6.7071,MR,medium,1
004SSDR,left,images/base/16_b.png,images/combined/16_a_x_315_y_0_z_270.png,right,0,9.297,MR,medium,2
004SSDR,left,images/base/10_a.png,images/combined/10_b_x_45_y_0_z_270.png,left,1,18.3674,MR,medium,3
004SSDR,left,images/base/6_b.png,images/combined/6_a_x_315_y_0_z_270.png,right,0,13.1381,MR,medium,4
004SSDR,left,images/base/12_b.png,images/combined/12_a_x_315_y_0_z_270.png,right,0,17.0804,MR,medium,5
004SSDR,right,images/base/3_a.png,images/combined/3_a_x_315_y_0_z_90.png,left,0,13.8733,MR,medium,6
004SSDR,right,images/base/8_a.png,images/combined/8_a_x_45_y_0_z_270.png,right,1,11.2487,MR,medium,7
004SSDR,left,images/base/5_a.png,images/combined/5_b_x_315_y_0_z_270.png,left,1,12.5161,MR,medium,8
004SSDR,right,images/base/1_b.png,images/combined/1_b_x_45_y_0_z_270.png,right,1,13.0695,MR,medium,9
004SSDR,right,images/base/2_b.png,images/combined/2_b_x_315_y_0_z_90.png,right,1,14.6253,MR,medium,10
004SSDR,right,images/base/11_b.png,images/combined/11_b_x_45_y_0_z_90.png,left,0,8.1799,MR,medium,11
004SSDR,left,images/base/4_a.png,images/combined/4_b_x_315_y_0_z_90.png,right,0,6.3386,MR,medium,12
004SSDR,left,images/base/7_a.png,images/combined/7_b_x_315_y_0_z_270.png,left,1,8.5333,MR,medium,13
004SSDR,left,images/base/9_b.png,images/combined/9_a_x_45_y_0_z_90.png,left,1,17.9332,MR,medium,14
004SSDR,left,images/base/14_b.png,images/combined/14_a_x_45_y_0_z_270.png,left,1,10.6698,MR,medium,15
004SSDR,left,images/base/15_b.png,images/combined/15_a_x_315_y_0_z_270.png,right,0,15.36,MR,medium,16
004SSDR,left,images/base/11_a.png,images/combined/11_b_x_90_y_0_z_270.png,left,1,29.9689,MR,hard,1
004SSDR,left,images/base/3_b.png,images/combined/3_a_x_90_y_0_z_270.png,right,0,13.6973,MR,hard,2
004SSDR,left,images/base/12_b.png,images/combined/12_a_x_270_y_0_z_90.png,left,1,16.8394,MR,hard,3
004SSDR,left,images/base/15_a.png,images/combined/15_b_x_270_y_0_z_270.png,right,0,22.756,MR,hard,4
004SSDR,left,images/base/9_a.png,images/combined/9_b_x_270_y_0_z_90.png,left,1,32.6356,MR,hard,5
004SSDR,right,images/base/8_a.png,images/combined/8_a_x_270_y_0_z_270.png,right,1,41.3306,MR,hard,6
004SSDR,right,images/base/7_b.png,images/combined/7_b_x_270_y_0_z_90.png,left,0,18.412,MR,hard,7
004SSDR,left,images/base/4_a.png,images/combined/4_b_x_90_y_0_z_270.png,left,1,9.4746,MR,hard,8
004SSDR,left,images/base/14_b.png,images/combined/14_a_x_270_y_0_z_270.png,left,1,24.8275,MR,hard,9
004SSDR,left,images/base/10_a.png,images/combined/10_b_x_90_y_0_z_90.png,left,1,21.0979,MR,hard,10
004SSDR,right,images/base/1_b.png,images/combined/1_b_x_270_y_0_z_270.png,right,1,25.4764,MR,hard,11
004SSDR,right,images/base/6_a.png,images/combined/6_a_x_90_y_0_z_270.png,left,0,8.7966,MR,hard,12
004SSDR,left,images/base/2_a.png,images/combined/2_b_x_270_y_0_z_90.png,left,1,7.499,MR,hard,13
004SSDR,right,images/base/13_b.png,images/combined/13_b_x_90_y_0_z_90.png,right,1,6.1112,MR,hard,14
004SSDR,left,images/base/5_a.png,images/combined/5_b_x_90_y_0_z_270.png,right,0,18.6739,MR,hard,15
004SSDR,left,images/base/16_b.png,images/combined/16_a_x_270_y_0_z_90.png,left,1,17.7977,MR,hard,16
005SSDR,left,images/base/14_a.png,images/combined/14_b_x_0_y_0_z_45.png,left,1,4.0205,MR,easy,1
005SSDR,left,images/base/15_a.png,images/combined/15_b_x_0_y_0_z_315.png,left,1,9.7853,MR,easy,2
005SSDR,left,images/base/4_b.png,images/combined/4_a_x_0_y_0_z_315.png,left,1,4.456,MR,easy,3
005SSDR,left,images/base/1_b.png,images/combined/1_a_x_0_y_0_z_45.png,left,1,16.5136,MR,easy,4
005SSDR,left,images/base/3_a.png,images/combined/3_b_x_0_y_0_z_45.png,left,1,4.933,MR,easy,5
005SSDR,left,images/base/9_b.png,images/combined/9_a_x_0_y_0_z_45.png,left,1,32.0422,MR,easy,6
005SSDR,left,images/base/8_b.png,images/combined/8_a_x_0_y_0_z_315.png,left,1,2.6833,MR,easy,7
005SSDR,right,images/base/7_b.png,images/combined/7_b_x_0_y_0_z_45.png,right,1,2.6835,MR,easy,8
005SSDR,right,images/base/12_b.png,images/combined/12_b_x_0_y_0_z_315.png,right,1,6.1554,MR,easy,9
005SSDR,right,images/base/16_b.png,images/combined/16_b_x_0_y_0_z_45.png,right,1,4.4204,MR,easy,10
005SSDR,right,images/base/2_b.png,images/combined/2_b_x_0_y_0_z_45.png,right,1,3.1012,MR,easy,11
005SSDR,right,images/base/5_b.png,images/combined/5_b_x_0_y_0_z_315.png,right,1,2.6547,MR,easy,12
005SSDR,right,images/base/13_a.png,images/combined/13_a_x_0_y_0_z_315.png,right,1,1.7949,MR,easy,13
005SSDR,left,images/base/11_b.png,images/combined/11_a_x_0_y_0_z_45.png,left,1,36.5581,MR,easy,14
005SSDR,right,images/base/6_a.png,images/combined/6_a_x_0_y_0_z_315.png,right,1,2.3959,MR,easy,15
005SSDR,right,images/base/10_b.png,images/combined/10_b_x_0_y_0_z_45.png,right,1,1.618,MR,easy,16
005SSDR,left,images/base/5_a.png,images/combined/5_b_x_45_y_0_z_90.png,left,1,4.407,MR,medium,1
005SSDR,right,images/base/13_a.png,images/combined/13_a_x_45_y_0_z_270.png,right,1,5.4616,MR,medium,2
005SSDR,right,images/base/6_b.png,images/combined/6_b_x_45_y_0_z_270.png,right,1,7.5295,MR,medium,3
005SSDR,right,images/base/11_a.png,images/combined/11_a_x_45_y_0_z_90.png,right,1,3.6049,MR,medium,4
005SSDR,left,images/base/7_b.png,images/combined/7_a_x_45_y_0_z_270.png,left,1,4.0499,MR,medium,5
005SSDR,right,images/base/4_a.png,images/combined/4_a_x_45_y_0_z_270.png,right,1,1.7703,MR,medium,6
005SSDR,right,images/base/1_a.png,images/combined/1_a_x_315_y_0_z_270.png,right,1,6.0162,MR,medium,7
005SSDR,left,images/base/3_b.png,images/combined/3_a_x_45_y_0_z_270.png,left,1,4.7589,MR,medium,8
005SSDR,right,images/base/14_b.png,images/combined/14_b_x_45_y_0_z_90.png,right,1,6.5623,MR,medium,9
005SSDR,left,images/base/16_b.png,images/combined/16_a_x_45_y_0_z_270.png,left,1,7.7639,MR,medium,10
005SSDR,right,images/base/9_a.png,images/combined/9_a_x_315_y_0_z_90.png,right,1,6.3117,MR,medium,11
005SSDR,right,images/base/8_a.png,images/combined/8_a_x_315_y_0_z_270.png,right,1,7.7784,MR,medium,12
005SSDR,right,images/base/10_b.png,images/combined/10_b_x_315_y_0_z_270.png,right,1,3.0249,MR,medium,13
005SSDR,right,images/base/15_a.png,images/combined/15_a_x_45_y_0_z_90.png,right,1,6.2991,MR,medium,14
005SSDR,left,images/base/2_a.png,images/combined/2_b_x_315_y_0_z_90.png,left,1,4.7463,MR,medium,15
005SSDR,right,images/base/12_b.png,images/combined/12_b_x_45_y_0_z_90.png,right,1,2.5998,MR,medium,16
005SSDR,left,images/base/3_a.png,images/combined/3_b_x_270_y_0_z_90.png,left,1,13.6409,MR,hard,1
005SSDR,left,images/base/4_b.png,images/combined/4_a_x_90_y_0_z_270.png,left,1,5.5299,MR,hard,2
005SSDR,left,images/base/13_b.png,images/combined/13_a_x_270_y_0_z_90.png,left,1,6.53,MR,hard,3
005SSDR,left,images/base/1_a.png,images/combined/1_b_x_90_y_0_z_270.png,left,1,15.3447,MR,hard,4
005SSDR,right,images/base/11_b.png,images/combined/11_b_x_90_y_0_z_90.png,right,1,25.8422,MR,hard,5
005SSDR,left,images/base/10_b.png,images/combined/10_a_x_90_y_0_z_90.png,left,1,13.8273,MR,hard,6
005SSDR,right,images/base/8_a.png,images/combined/8_a_x_270_y_0_z_90.png,right,1,4.3969,MR,hard,7
005SSDR,left,images/base/15_a.png,images/combined/15_b_x_90_y_0_z_270.png,left,1,19.424,MR,hard,8
005SSDR,left,images/base/7_a.png,images/combined/7_b_x_270_y_0_z_90.png,left,1,10.7775,MR,hard,9
005SSDR,left,images/base/12_a.png,images/combined/12_b_x_90_y_0_z_270.png,left,1,10.5115,MR,hard,10
005SSDR,left,images/base/9_b.png,images/combined/9_a_x_270_y_0_z_270.png,right,0,8.7896,MR,hard,11
005SSDR,right,images/base/2_b.png,images/combined/2_b_x_270_y_0_z_90.png,right,1,4.0677,MR,hard,12
005SSDR,left,images/base/5_a.png,images/combined/5_b_x_90_y_0_z_270.png,left,1,19.9192,MR,hard,13
005SSDR,right,images/base/14_a.png,images/combined/14_a_x_270_y_0_z_90.png,right,1,5.3299,MR,hard,14
005SSDR,right,images/base/16_a.png,images/combined/16_a_x_270_y_0_z_270.png,right,1,7.8991,MR,hard,15
005SSDR,right,images/base/6_a.png,images/combined/6_a_x_270_y_0_z_90.png,right,1,3.5985,MR,hard,16
006SSEE,left,images/base/12_a.png,images/combined/12_b_x_0_y_0_z_315.png,left,1,12.1829,MR,easy,1
006SSEE,right,images/base/5_b.png,images/combined/5_b_x_0_y_0_z_45.png,right,1,3.345,MR,easy,2
006SSEE,left,images/base/13_a.png,images/combined/13_b_x_0_y_0_z_315.png,left,1,6.271,MR,easy,3
006SSEE,left,images/base/2_a.png,images/combined/2_b_x_0_y_0_z_315.png,left,1,15.7618,MR,easy,4
006SSEE,left,images/base/15_b.png,images/combined/15_a_x_0_y_0_z_45.png,right,0,3.1093,MR,easy,5
006SSEE,right,images/base/4_b.png,images/combined/4_b_x_0_y_0_z_45.png,right,1,5.277,MR,easy,6
006SSEE,right,images/base/9_a.png,images/combined/9_a_x_0_y_0_z_45.png,right,1,2.9431,MR,easy,7
006SSEE,left,images/base/1_a.png,images/combined/1_b_x_0_y_0_z_315.png,left,1,1.3136,MR,easy,8
006SSEE,right,images/base/14_b.png,images/combined/14_b_x_0_y_0_z_315.png,right,1,2.5725,MR,easy,9
006SSEE,left,images/base/10_a.png,images/combined/10_b_x_0_y_0_z_315.png,left,1,6.6224,MR,easy,10
006SSEE,left,images/base/11_b.png,images/combined/11_a_x_0_y_0_z_45.png,left,1,11.9913,MR,easy,11
006SSEE,right,images/base/6_b.png,images/combined/6_b_x_0_y_0_z_45.png,right,1,3.2082,MR,easy,12
006SSEE,right,images/base/7_b.png,images/combined/7_b_x_0_y_0_z_315.png,right,1,8.23,MR,easy,13
006SSEE,left,images/base/8_a.png,images/combined/8_b_x_0_y_0_z_45.png,left,1,2.7976,MR,easy,14
006SSEE,left,images/base/3_a.png,images/combined/3_b_x_0_y_0_z_315.png,left,1,1.6727,MR,easy,15
006SSEE,left,images/base/16_a.png,images/combined/16_b_x_0_y_0_z_315.png,left,1,11.6789,MR,easy,16
006SSEE,left,images/base/4_a.png,images/combined/4_b_x_45_y_0_z_270.png,right,0,3.5535,MR,medium,1
006SSEE,left,images/base/3_a.png,images/combined/3_b_x_45_y_0_z_270.png,left,1,5.6366,MR,medium,2
006SSEE,right,images/base/1_a.png,images/combined/1_a_x_315_y_0_z_270.png,right,1,3.7912,MR,medium,3
006SSEE,right,images/base/8_b.png,images/combined/8_b_x_45_y_0_z_270.png,left,0,11.0009,MR,medium,4
006SSEE,left,images/base/10_a.png,images/combined/10_b_x_45_y_0_z_90.png,right,0,3.0634,MR,medium,5
006SSEE,left,images/base/13_a.png,images/combined/13_b_x_45_y_0_z_90.png,left,1,5.0985,MR,medium,6
006SSEE,right,images/base/16_a.png,images/combined/16_a_x_315_y_0_z_90.png,right,1,6.1821,MR,medium,7
006SSEE,left,images/base/12_a.png,images/combined/12_b_x_315_y_0_z_90.png,right,0,7.341,MR,medium,8
006SSEE,left,images/base/5_a.png,images/combined/5_b_x_45_y_0_z_270.png,right,0,20.3224,MR,medium,9
006SSEE,right,images/base/11_a.png,images/combined/11_a_x_315_y_0_z_270.png,left,0,5.9564,MR,medium,10
006SSEE,left,images/base/15_b.png,images/combined/15_a_x_315_y_0_z_270.png,left,1,34.6784,MR,medium,11
006SSEE,right,images/base/6_b.png,images/combined/6_b_x_45_y_0_z_270.png,right,1,5.9294,MR,medium,12
006SSEE,right,images/base/2_a.png,images/combined/2_a_x_315_y_0_z_90.png,left,0,5.9762,MR,medium,13
006SSEE,right,images/base/14_b.png,images/combined/14_b_x_45_y_0_z_90.png,right,1,7.304,MR,medium,14
006SSEE,right,images/base/7_a.png,images/combined/7_a_x_315_y_0_z_90.png,left,0,4.2067,MR,medium,15
006SSEE,right,images/base/9_a.png,images/combined/9_a_x_315_y_0_z_90.png,right,1,5.8976,MR,medium,16
006SSEE,right,images/base/10_b.png,images/combined/10_b_x_90_y_0_z_90.png,right,1,12.1778,MR,hard,1
006SSEE,left,images/base/9_a.png,images/combined/9_b_x_90_y_0_z_270.png,left,1,20.5067,MR,hard,2
006SSEE,right,images/base/6_b.png,images/combined/6_b_x_270_y_0_z_270.png,right,1,1.3351,MR,hard,3
006SSEE,right,images/base/1_b.png,images/combined/1_b_x_90_y_0_z_270.png,right,1,1.7031,MR,hard,4
006SSEE,left,images/base/13_a.png,images/combined/13_b_x_90_y_0_z_270.png,right,0,1.7545,MR,hard,5
006SSEE,right,images/base/12_a.png,images/combined/12_a_x_90_y_0_z_270.png,right,1,3.4102,MR,hard,6
006SSEE,right,images/base/14_b.png,images/combined/14_b_x_90_y_0_z_270.png,right,1,4.4527,MR,hard,7
006SSEE,left,images/base/16_b.png,images/combined/16_a_x_270_y_0_z_270.png,left,1,7.8819,MR,hard,8
006SSEE,left,images/base/2_a.png,images/combined/2_b_x_90_y_0_z_270.png,left,1,12.163,MR,hard,9
006SSEE,left,images/base/7_a.png,images/combined/7_b_x_270_y_0_z_270.png,left,1,10.2956,MR,hard,10
006SSEE,right,images/base/11_b.png,images/combined/11_b_x_270_y_0_z_90.png,right,1,2.2534,MR,hard,11
006SSEE,left,images/base/5_b.png,images/combined/5_a_x_90_y_0_z_270.png,right,0,10.7231,MR,hard,12
006SSEE,left,images/base/8_a.png,images/combined/8_b_x_270_y_0_z_270.png,right,0,4.5045,MR,hard,13
006SSEE,left,images/base/3_b.png,images/combined/3_a_x_90_y_0_z_270.png,left,1,3.4932,MR,hard,14
006SSEE,right,images/base/15_a.png,images/combined/15_a_x_270_y_0_z_90.png,right,1,2.9052,MR,hard,15
006SSEE,left,images/base/4_a.png,images/combined/4_b_x_90_y_0_z_90.png,right,0,0.8923,MR,hard,16
007SSJM,right,images/base/7_a.png,images/combined/7_a_x_0_y_0_z_315.png,right,1,4.698,MR,easy,1
007SSJM,left,images/base/3_b.png,images/combined/3_a_x_0_y_0_z_315.png,left,1,7.157,MR,easy,2
007SSJM,right,images/base/15_b.png,images/combined/15_b_x_0_y_0_z_45.png,right,1,2.5,MR,easy,3
007SSJM,right,images/base/14_a.png,images/combined/14_a_x_0_y_0_z_315.png,right,1,4.672,MR,easy,4
007SSJM,right,images/base/4_a.png,images/combined/4_a_x_0_y_0_z_45.png,right,1,2.937,MR,easy,5
007SSJM,left,images/base/1_a.png,images/combined/1_b_x_0_y_0_z_315.png,left,1,2.104,MR,easy,6
007SSJM,left,images/base/6_b.png,images/combined/6_a_x_0_y_0_z_45.png,left,1,10.765,MR,easy,7
007SSJM,left,images/base/2_b.png,images/combined/2_a_x_0_y_0_z_315.png,left,1,2.003,MR,easy,8
007SSJM,left,images/base/11_b.png,images/combined/11_a_x_0_y_0_z_315.png,left,1,3.719,MR,easy,9
007SSJM,left,images/base/10_b.png,images/combined/10_a_x_0_y_0_z_315.png,left,1,5.254,MR,easy,10
007SSJM,left,images/base/5_a.png,images/combined/5_b_x_0_y_0_z_315.png,left,1,1.854,MR,easy,11
007SSJM,left,images/base/16_b.png,images/combined/16_a_x_0_y_0_z_45.png,left,1,8.319,MR,easy,12
007SSJM,left,images/base/8_a.png,images/combined/8_b_x_0_y_0_z_45.png,left,1,9.791,MR,easy,13
007SSJM,left,images/base/12_a.png,images/combined/12_b_x_0_y_0_z_315.png,left,1,1.918,MR,easy,14
007SSJM,right,images/base/13_a.png,images/combined/13_a_x_0_y_0_z_45.png,right,1,5.068,MR,easy,15
007SSJM,left,images/base/9_a.png,images/combined/9_b_x_0_y_0_z_315.png,left,1,1.72,MR,easy,16
007SSJM,right,images/base/1_b.png,images/combined/1_b_x_45_y_0_z_270.png,right,1,9.546,MR,medium,1
007SSJM,left,images/base/8_a.png,images/combined/8_b_x_315_y_0_z_90.png,left,1,10.189,MR,medium,2
007SSJM,right,images/base/2_b.png,images/combined/2_b_x_45_y_0_z_90.png,right,1,5.418,MR,medium,3
007SSJM,left,images/base/5_a.png,images/combined/5_b_x_45_y_0_z_90.png,left,1,5.199,MR,medium,4
007SSJM,left,images/base/3_a.png,images/combined/3_b_x_45_y_0_z_270.png,left,1,4.387,MR,medium,5
007SSJM,right,images/base/11_a.png,images/combined/11_a_x_315_y_0_z_270.png,left,0,4.783,MR,medium,6
007SSJM,right,images/base/12_a.png,images/combined/12_a_x_45_y_0_z_270.png,left,0,3.4,MR,medium,7
007SSJM,right,images/base/7_a.png,images/combined/7_a_x_45_y_0_z_90.png,right,1,7.536,MR,medium,8
007SSJM,left,images/base/15_b.png,images/combined/15_a_x_315_y_0_z_270.png,left,1,7.7,MR,medium,9
007SSJM,right,images/base/14_a.png,images/combined/14_a_x_315_y_0_z_270.png,right,1,11.184,MR,medium,10
007SSJM,left,images/base/6_b.png,images/combined/6_a_x_45_y_0_z_90.png,left,1,6.192,MR,medium,11
007SSJM,left,images/base/9_b.png,images/combined/9_a_x_45_y_0_z_270.png,left,1,6.585,MR,medium,12
007SSJM,left,images/base/4_a.png,images/combined/4_b_x_45_y_0_z_90.png,left,1,8.258,MR,medium,13
007SSJM,left,images/base/16_b.png,images/combined/16_a_x_315_y_0_z_90.png,left,1,12.519,MR,medium,14
007SSJM,left,images/base/10_b.png,images/combined/10_a_x_315_y_0_z_90.png,left,1,9.552,MR,medium,15
007SSJM,left,images/base/13_a.png,images/combined/13_b_x_45_y_0_z_270.png,left,1,7.523,MR,medium,16
007SSJM,right,images/base/16_a.png,images/combined/16_a_x_90_y_0_z_90.png,right,1,9.347,MR,hard,1
007SSJM,left,images/base/8_a.png,images/combined/8_b_x_270_y_0_z_270.png,right,0,11.611,MR,hard,2
007SSJM,right,images/base/3_b.png,images/combined/3_b_x_90_y_0_z_90.png,right,1,10.318,MR,hard,3
007SSJM,left,images/base/5_b.png,images/combined/5_a_x_270_y_0_z_270.png,left,1,4.968,MR,hard,4
007SSJM,right,images/base/12_b.png,images/combined/12_b_x_270_y_0_z_90.png,right,1,11.975,MR,hard,5
007SSJM,left,images/base/4_b.png,images/combined/4_a_x_90_y_0_z_90.png,left,1,6.259,MR,hard,6
007SSJM,right,images/base/14_b.png,images/combined/14_b_x_270_y_0_z_270.png,left,0,12.904,MR,hard,7
007SSJM,left,images/base/9_b.png,images/combined/9_a_x_270_y_0_z_270.png,left,1,18.803,MR,hard,8
007SSJM,right,images/base/2_a.png,images/combined/2_a_x_270_y_0_z_270.png,right,1,9.238,MR,hard,9
007SSJM,left,images/base/1_b.png,images/combined/1_a_x_270_y_0_z_90.png,right,0,18.603,MR,hard,10
007SSJM,left,images/base/13_b.png,images/combined/13_a_x_270_y_0_z_90.png,left,1,23.24,MR,hard,11
007SSJM,right,images/base/11_a.png,images/combined/11_a_x_90_y_0_z_90.png,right,1,13.721,MR,hard,12
007SSJM,right,images/base/7_a.png,images/combined/7_a_x_270_y_0_z_270.png,right,1,4.752,MR,hard,13
007SSJM,left,images/base/6_a.png,images/combined/6_b_x_90_y_0_z_270.png,right,0,7.669,MR,hard,14
007SSJM,left,images/base/10_a.png,images/combined/10_b_x_270_y_0_z_90.png,left,1,13.608,MR,hard,15
007SSJM,right,images/base/15_b.png,images/combined/15_b_x_90_y_0_z_270.png,right,1,11.185,MR,hard,16
009SSAP,left,images/base/3_b.png,images/combined/3_a_x_0_y_0_z_315.png,left,1,2.6291,MR,easy,1
009SSAP,right,images/base/10_b.png,images/combined/10_b_x_0_y_0_z_45.png,right,1,2.2923,MR,easy,2
009SSAP,left,images/base/4_a.png,images/combined/4_b_x_0_y_0_z_45.png,left,1,3.9182,MR,easy,3
009SSAP,left,images/base/14_a.png,images/combined/14_b_x_0_y_0_z_315.png,left,1,3.4046,MR,easy,4
009SSAP,left,images/base/5_b.png,images/combined/5_a_x_0_y_0_z_45.png,left,1,4.8892,MR,easy,5
009SSAP,right,images/base/1_b.png,images/combined/1_b_x_0_y_0_z_45.png,right,1,3.4486,MR,easy,6
009SSAP,right,images/base/9_a.png,images/combined/9_a_x_0_y_0_z_315.png,right,1,2.8477,MR,easy,7
009SSAP,left,images/base/8_a.png,images/combined/8_b_x_0_y_0_z_315.png,left,1,3.0212,MR,easy,8
009SSAP,right,images/base/6_b.png,images/combined/6_b_x_0_y_0_z_45.png,right,1,2.8231,MR,easy,9
009SSAP,right,images/base/12_b.png,images/combined/12_b_x_0_y_0_z_45.png,right,1,2.666,MR,easy,10
009SSAP,left,images/base/16_b.png,images/combined/16_a_x_0_y_0_z_45.png,left,1,3.9934,MR,easy,11
009SSAP,left,images/base/11_a.png,images/combined/11_b_x_0_y_0_z_315.png,left,1,2.674,MR,easy,12
009SSAP,left,images/base/2_b.png,images/combined/2_a_x_0_y_0_z_45.png,left,1,3.6055,MR,easy,13
009SSAP,left,images/base/15_a.png,images/combined/15_b_x_0_y_0_z_45.png,left,1,2.5943,MR,easy,14
009SSAP,right,images/base/7_a.png,images/combined/7_a_x_0_y_0_z_315.png,right,1,2.4598,MR,easy,15
009SSAP,right,images/base/13_b.png,images/combined/13_b_x_0_y_0_z_315.png,right,1,1.9675,MR,easy,16
009SSAP,left,images/base/15_a.png,images/combined/15_b_x_45_y_0_z_270.png,left,1,6.3003,MR,medium,1
009SSAP,left,images/base/10_b.png,images/combined/10_a_x_315_y_0_z_270.png,right,0,5.5675,MR,medium,2
009SSAP,left,images/base/8_a.png,images/combined/8_b_x_315_y_0_z_270.png,right,0,5.6345,MR,medium,3
009SSAP,left,images/base/4_a.png,images/combined/4_b_x_45_y_0_z_90.png,left,1,3.0853,MR,medium,4
009SSAP,left,images/base/2_b.png,images/combined/2_a_x_315_y_0_z_270.png,left,1,5.1173,MR,medium,5
009SSAP,right,images/base/11_b.png,images/combined/11_b_x_315_y_0_z_90.png,right,1,3.3338,MR,medium,6
009SSAP,left,images/base/3_b.png,images/combined/3_a_x_45_y_0_z_90.png,left,1,5.9738,MR,medium,7
009SSAP,left,images/base/9_b.png,images/combined/9_a_x_315_y_0_z_90.png,left,1,5.4093,MR,medium,8
009SSAP,right,images/base/14_a.png,images/combined/14_a_x_45_y_0_z_270.png,right,1,10.8507,MR,medium,9
009SSAP,left,images/base/6_a.png,images/combined/6_b_x_315_y_0_z_90.png,left,1,2.8287,MR,medium,10
009SSAP,left,images/base/1_a.png,images/combined/1_b_x_315_y_0_z_90.png,right,0,8.546,MR,medium,11
009SSAP,right,images/base/13_a.png,images/combined/13_a_x_45_y_0_z_90.png,right,1,2.5534,MR,medium,12
009SSAP,right,images/base/7_a.png,images/combined/7_a_x_45_y_0_z_270.png,right,1,3.2676,MR,medium,13
009SSAP,left,images/base/16_b.png,images/combined/16_a_x_315_y_0_z_270.png,right,0,12.8025,MR,medium,14
009SSAP,right,images/base/12_b.png,images/combined/12_b_x_315_y_0_z_90.png,right,1,3.1729,MR,medium,15
009SSAP,left,images/base/5_b.png,images/combined/5_a_x_45_y_0_z_90.png,left,1,5.7545,MR,medium,16
009SSAP,right,images/base/12_b.png,images/combined/12_b_x_90_y_0_z_90.png,right,1,7.1426,MR,hard,1
009SSAP,right,images/base/6_a.png,images/combined/6_a_x_270_y_0_z_90.png,right,1,5.0974,MR,hard,2
009SSAP,left,images/base/3_b.png,images/combined/3_a_x_90_y_0_z_270.png,left,1,4.7977,MR,hard,3
009SSAP,right,images/base/9_a.png,images/combined/9_a_x_270_y_0_z_90.png,right,1,2.8394,MR,hard,4
009SSAP,left,images/base/1_a.png,images/combined/1_b_x_90_y_0_z_90.png,left,1,5.2145,MR,hard,5
009SSAP,left,images/base/16_a.png,images/combined/16_b_x_90_y_0_z_90.png,right,0,10.4792,MR,hard,6
009SSAP,right,images/base/14_a.png,images/combined/14_a_x_90_y_0_z_270.png,right,1,19.2603,MR,hard,7
009SSAP,left,images/base/13_b.png,images/combined/13_a_x_270_y_0_z_270.png,left,1,3.8335,MR,hard,8
009SSAP,right,images/base/11_b.png,images/combined/11_b_x_90_y_0_z_90.png,right,1,4.755,MR,hard,9
009SSAP,left,images/base/8_a.png,images/combined/8_b_x_270_y_0_z_90.png,right,0,5.4713,MR,hard,10
009SSAP,right,images/base/15_a.png,images/combined/15_a_x_90_y_0_z_270.png,right,1,9.4267,MR,hard,11
009SSAP,right,images/base/5_b.png,images/combined/5_b_x_270_y_0_z_270.png,right,1,6.588,MR,hard,12
009SSAP,left,images/base/7_a.png,images/combined/7_b_x_90_y_0_z_270.png,left,1,5.9582,MR,hard,13
009SSAP,right,images/base/4_a.png,images/combined/4_a_x_90_y_0_z_270.png,right,1,2.9055,MR,hard,14
009SSAP,right,images/base/10_a.png,images/combined/10_a_x_270_y_0_z_270.png,right,1,3.0861,MR,hard,15
009SSAP,left,images/base/2_a.png,images/combined/2_b_x_270_y_0_z_90.png,left,1,5.6189,MR,hard,16
010SSEA,right,images/base/1_b.png,images/combined/1_b_x_0_y_0_z_45.png,right,1,5.4988,MR,easy,1
010SSEA,left,images/base/13_b.png,images/combined/13_a_x_0_y_0_z_45.png,right,0,16.1871,MR,easy,2
010SSEA,left,images/base/14_b.png,images/combined/14_a_x_0_y_0_z_45.png,right,0,7.0685,MR,easy,3
010SSEA,left,images/base/5_a.png,images/combined/5_b_x_0_y_0_z_315.png,right,0,1.7238,MR,easy,4
010SSEA,right,images/base/2_a.png,images/combined/2_a_x_0_y_0_z_315.png,right,1,16.0169,MR,easy,5
010SSEA,right,images/base/10_a.png,images/combined/10_a_x_0_y_0_z_315.png,right,1,5.1899,MR,easy,6
010SSEA,left,images/base/15_a.png,images/combined/15_b_x_0_y_0_z_315.png,left,1,4.6169,MR,easy,7
010SSEA,left,images/base/7_a.png,images/combined/7_b_x_0_y_0_z_45.png,left,1,8.536,MR,easy,8
010SSEA,left,images/base/4_b.png,images/combined/4_a_x_0_y_0_z_315.png,left,1,2.0275,MR,easy,9
010SSEA,right,images/base/9_b.png,images/combined/9_b_x_0_y_0_z_315.png,right,1,2.1686,MR,easy,10
010SSEA,right,images/base/6_a.png,images/combined/6_a_x_0_y_0_z_315.png,right,1,1.9174,MR,easy,11
010SSEA,right,images/base/3_a.png,images/combined/3_a_x_0_y_0_z_45.png,right,1,2.4518,MR,easy,12
010SSEA,right,images/base/8_b.png,images/combined/8_b_x_0_y_0_z_45.png,right,1,1.962,MR,easy,13
010SSEA,left,images/base/16_b.png,images/combined/16_a_x_0_y_0_z_45.png,right,0,1.5984,MR,easy,14
010SSEA,right,images/base/11_b.png,images/combined/11_b_x_0_y_0_z_315.png,right,1,5.9179,MR,easy,15
010SSEA,left,images/base/12_b.png,images/combined/12_a_x_0_y_0_z_315.png,left,1,2.2362,MR,easy,16
010SSEA,right,images/base/16_b.png,images/combined/16_b_x_45_y_0_z_90.png,right,1,8.9663,MR,medium,1
010SSEA,right,images/base/15_b.png,images/combined/15_b_x_45_y_0_z_90.png,right,1,1.7657,MR,medium,2
010SSEA,left,images/base/2_a.png,images/combined/2_b_x_45_y_0_z_90.png,right,0,20.8177,MR,medium,3
010SSEA,left,images/base/1_b.png,images/combined/1_a_x_315_y_0_z_90.png,left,1,12.0777,MR,medium,4
010SSEA,left,images/base/13_a.png,images/combined/13_b_x_45_y_0_z_90.png,left,1,9.2803,MR,medium,5
010SSEA,right,images/base/6_a.png,images/combined/6_a_x_45_y_0_z_270.png,right,1,4.6492000000000004,MR,medium,6
010SSEA,left,images/base/5_b.png,images/combined/5_a_x_315_y_0_z_270.png,left,1,5.1069,MR,medium,7
010SSEA,left,images/base/14_a.png,images/combined/14_b_x_315_y_0_z_270.png,left,1,3.7154,MR,medium,8
010SSEA,left,images/base/10_a.png,images/combined/10_b_x_315_y_0_z_270.png,left,1,7.8525,MR,medium,9
010SSEA,left,images/base/3_a.png,images/combined/3_b_x_45_y_0_z_90.png,right,0,17.2993,MR,medium,10
010SSEA,right,images/base/11_b.png,images/combined/11_b_x_45_y_0_z_90.png,left,0,19.1813,MR,medium,11
010SSEA,left,images/base/12_b.png,images/combined/12_a_x_45_y_0_z_270.png,left,1,8.2811,MR,medium,12
010SSEA,left,images/base/7_b.png,images/combined/7_a_x_45_y_0_z_90.png,left,1,7.3152,MR,medium,13
010SSEA,left,images/base/4_b.png,images/combined/4_a_x_45_y_0_z_270.png,left,1,4.7529,MR,medium,14
010SSEA,left,images/base/8_a.png,images/combined/8_b_x_45_y_0_z_270.png,left,1,10.9584,MR,medium,15
010SSEA,left,images/base/9_b.png,images/combined/9_a_x_45_y_0_z_90.png,left,1,3.1495,MR,medium,16
010SSEA,left,images/base/9_b.png,images/combined/9_a_x_270_y_0_z_90.png,right,0,21.9615,MR,hard,1
010SSEA,left,images/base/8_b.png,images/combined/8_a_x_270_y_0_z_90.png,left,1,20.8221,MR,hard,2
010SSEA,left,images/base/3_b.png,images/combined/3_a_x_270_y_0_z_90.png,left,1,15.6372,MR,hard,3
010SSEA,left,images/base/4_a.png,images/combined/4_b_x_90_y_0_z_270.png,left,1,6.1867,MR,hard,4
010SSEA,right,images/base/10_b.png,images/combined/10_b_x_270_y_0_z_90.png,right,1,9.6308,MR,hard,5
010SSEA,right,images/base/13_b.png,images/combined/13_b_x_90_y_0_z_270.png,right,1,10.8666,MR,hard,6
010SSEA,right,images/base/6_b.png,images/combined/6_b_x_270_y_0_z_270.png,right,1,10.4336,MR,hard,7
010SSEA,right,images/base/5_b.png,images/combined/5_b_x_90_y_0_z_270.png,right,1,15.0853,MR,hard,8
010SSEA,right,images/base/1_a.png,images/combined/1_a_x_90_y_0_z_270.png,right,1,8.2325,MR,hard,9
010SSEA,left,images/base/7_a.png,images/combined/7_b_x_270_y_0_z_90.png,left,1,7.691,MR,hard,10
010SSEA,left,images/base/12_b.png,images/combined/12_a_x_270_y_0_z_90.png,left,1,10.9942,MR,hard,11
010SSEA,left,images/base/15_a.png,images/combined/15_b_x_270_y_0_z_270.png,left,1,13.4048,MR,hard,12
010SSEA,left,images/base/11_a.png,images/combined/11_b_x_270_y_0_z_90.png,left,1,7.8003,MR,hard,13
010SSEA,right,images/base/16_a.png,images/combined/16_a_x_90_y_0_z_270.png,right,1,14.6408,MR,hard,14
010SSEA,left,images/base/14_a.png,images/combined/14_b_x_90_y_0_z_270.png,left,1,8.9373,MR,hard,15
010SSEA,right,images/base/2_a.png,images/combined/2_a_x_90_y_0_z_90.png,right,1,7.4364,MR,hard,16
011SSAB,left,images/base/13_a.png,images/combined/13_b_x_0_y_0_z_45.png,right,0,11.4,MR,easy,1
011SSAB,right,images/base/2_b.png,images/combined/2_b_x_0_y_0_z_45.png,right,1,11.952,MR,easy,2
011SSAB,right,images/base/7_b.png,images/combined/7_b_x_0_y_0_z_45.png,left,0,9.911,MR,easy,3
011SSAB,left,images/base/6_b.png,images/combined/6_a_x_0_y_0_z_315.png,right,0,11.951,MR,easy,4
011SSAB,right,images/base/1_a.png,images/combined/1_a_x_0_y_0_z_45.png,right,1,7.791,MR,easy,5
011SSAB,right,images/base/14_b.png,images/combined/14_b_x_0_y_0_z_45.png,right,1,11.331,MR,easy,6
011SSAB,left,images/base/5_a.png,images/combined/5_b_x_0_y_0_z_45.png,left,1,9.453,MR,easy,7
011SSAB,left,images/base/12_a.png,images/combined/12_b_x_0_y_0_z_315.png,right,0,11.849,MR,easy,8
011SSAB,left,images/base/9_a.png,images/combined/9_b_x_0_y_0_z_45.png,left,1,12.756,MR,easy,9
011SSAB,right,images/base/11_a.png,images/combined/11_a_x_0_y_0_z_45.png,right,1,11.165,MR,easy,10
011SSAB,left,images/base/15_a.png,images/combined/15_b_x_0_y_0_z_45.png,right,0,18.05,MR,easy,11
011SSAB,left,images/base/8_b.png,images/combined/8_a_x_0_y_0_z_45.png,right,0,9.418,MR,easy,12
011SSAB,right,images/base/3_a.png,images/combined/3_a_x_0_y_0_z_315.png,right,1,6.821,MR,easy,13
011SSAB,left,images/base/10_a.png,images/combined/10_b_x_0_y_0_z_315.png,right,0,4.028,MR,easy,14
011SSAB,right,images/base/4_b.png,images/combined/4_b_x_0_y_0_z_45.png,right,1,4.78,MR,easy,15
011SSAB,left,images/base/16_b.png,images/combined/16_a_x_0_y_0_z_45.png,left,1,9.319,MR,easy,16
011SSAB,right,images/base/15_a.png,images/combined/15_a_x_315_y_0_z_270.png,left,0,2.488,MR,medium,1
011SSAB,left,images/base/13_a.png,images/combined/13_b_x_315_y_0_z_270.png,right,0,1.646,MR,medium,2
011SSAB,right,images/base/11_b.png,images/combined/11_b_x_45_y_0_z_90.png,right,1,1.68,MR,medium,3
011SSAB,left,images/base/3_b.png,images/combined/3_a_x_45_y_0_z_270.png,left,1,0.943,MR,medium,4
011SSAB,left,images/base/14_a.png,images/combined/14_b_x_315_y_0_z_270.png,right,0,1.028,MR,medium,5
011SSAB,right,images/base/9_a.png,images/combined/9_a_x_45_y_0_z_270.png,left,0,1.374,MR,medium,6
011SSAB,left,images/base/8_a.png,images/combined/8_b_x_315_y_0_z_270.png,right,0,0.829,MR,medium,7
011SSAB,right,images/base/12_a.png,images/combined/12_a_x_315_y_0_z_270.png,left,0,0.722,MR,medium,8
011SSAB,left,images/base/6_a.png,images/combined/6_b_x_315_y_0_z_90.png,right,0,2.717,MR,medium,9
011SSAB,right,images/base/1_b.png,images/combined/1_b_x_315_y_0_z_270.png,left,0,1.413,MR,medium,10
011SSAB,left,images/base/7_b.png,images/combined/7_a_x_315_y_0_z_270.png,right,0,2.5,MR,medium,11
011SSAB,right,images/base/10_a.png,images/combined/10_a_x_315_y_0_z_270.png,right,1,1.772,MR,medium,12
011SSAB,left,images/base/2_b.png,images/combined/2_a_x_315_y_0_z_90.png,left,1,1.398,MR,medium,13
011SSAB,right,images/base/4_b.png,images/combined/4_b_x_45_y_0_z_270.png,left,0,3.02,MR,medium,14
011SSAB,right,images/base/16_a.png,images/combined/16_a_x_315_y_0_z_90.png,left,0,1.872,MR,medium,15
011SSAB,right,images/base/5_a.png,images/combined/5_a_x_45_y_0_z_90.png,left,0,1.523,MR,medium,16
011SSAB,left,images/base/10_b.png,images/combined/10_a_x_270_y_0_z_90.png,left,1,4.389,MR,hard,1
011SSAB,right,images/base/5_a.png,images/combined/5_a_x_90_y_0_z_90.png,left,0,7.037,MR,hard,2
011SSAB,left,images/base/11_b.png,images/combined/11_a_x_90_y_0_z_90.png,left,1,10.177,MR,hard,3
011SSAB,right,images/base/13_b.png,images/combined/13_b_x_90_y_0_z_90.png,left,0,3.904,MR,hard,4
011SSAB,right,images/base/1_b.png,images/combined/1_b_x_90_y_0_z_90.png,right,1,5.402,MR,hard,5
011SSAB,right,images/base/6_b.png,images/combined/6_b_x_270_y_0_z_90.png,right,1,3.948,MR,hard,6
011SSAB,left,images/base/12_b.png,images/combined/12_a_x_90_y_0_z_90.png,left,1,2.166,MR,hard,7
011SSAB,right,images/base/15_a.png,images/combined/15_a_x_270_y_0_z_90.png,left,0,4.132,MR,hard,8
011SSAB,right,images/base/2_a.png,images/combined/2_a_x_90_y_0_z_90.png,left,0,4.847,MR,hard,9
011SSAB,left,images/base/9_b.png,images/combined/9_a_x_270_y_0_z_90.png,left,1,7.872,MR,hard,10
011SSAB,right,images/base/7_b.png,images/combined/7_b_x_90_y_0_z_90.png,right,1,6.069,MR,hard,11
011SSAB,right,images/base/8_a.png,images/combined/8_a_x_270_y_0_z_270.png,left,0,2.701,MR,hard,12
011SSAB,right,images/base/16_b.png,images/combined/16_b_x_90_y_0_z_270.png,right,1,2.216,MR,hard,13
011SSAB,right,images/base/4_a.png,images/combined/4_a_x_270_y_0_z_270.png,left,0,2.742,MR,hard,14
011SSAB,right,images/base/14_b.png,images/combined/14_b_x_270_y_0_z_270.png,left,0,2.277,MR,hard,15
011SSAB,left,images/base/3_a.png,images/combined/3_b_x_90_y_0_z_270.png,left,1,5.282,MR,hard,16
012EROP,left,images/base/5_b.png,images/combined/5_a_x_0_y_0_z_45.png,right,0,4.7919,MR,easy,1
012EROP,right,images/base/4_a.png,images/combined/4_a_x_0_y_0_z_315.png,left,0,1.2491,MR,easy,2
012EROP,right,images/base/13_b.png,images/combined/13_b_x_0_y_0_z_45.png,right,1,5.5053,MR,easy,3
012EROP,right,images/base/3_b.png,images/combined/3_b_x_0_y_0_z_45.png,left,0,1.0582,MR,easy,4
012EROP,left,images/base/14_a.png,images/combined/14_b_x_0_y_0_z_315.png,left,1,0.8159,MR,easy,5
012EROP,right,images/base/6_b.png,images/combined/6_b_x_0_y_0_z_45.png,right,1,1.472,MR,easy,6
012EROP,right,images/base/15_a.png,images/combined/15_a_x_0_y_0_z_45.png,left,0,0.671,MR,easy,7
012EROP,right,images/base/11_a.png,images/combined/11_a_x_0_y_0_z_315.png,right,1,0.6174,MR,easy,8
012EROP,left,images/base/16_b.png,images/combined/16_a_x_0_y_0_z_315.png,right,0,0.673,MR,easy,9
012EROP,left,images/base/1_a.png,images/combined/1_b_x_0_y_0_z_45.png,right,0,0.5154,MR,easy,10
012EROP,left,images/base/2_a.png,images/combined/2_b_x_0_y_0_z_45.png,right,0,0.4852,MR,easy,11
012EROP,right,images/base/8_a.png,images/combined/8_a_x_0_y_0_z_315.png,left,0,0.4153,MR,easy,12
012EROP,right,images/base/9_b.png,images/combined/9_b_x_0_y_0_z_45.png,right,1,2.0984,MR,easy,13
012EROP,left,images/base/10_b.png,images/combined/10_a_x_0_y_0_z_45.png,right,0,1.8832,MR,easy,14
012EROP,right,images/base/7_b.png,images/combined/7_b_x_0_y_0_z_315.png,left,0,1.3427,MR,easy,15
012EROP,left,images/base/12_a.png,images/combined/12_b_x_0_y_0_z_315.png,right,0,3.1351,MR,easy,16
012EROP,left,images/base/14_b.png,images/combined/14_a_x_315_y_0_z_270.png,left,1,2.1764,MR,medium,1
012EROP,right,images/base/2_b.png,images/combined/2_b_x_315_y_0_z_90.png,right,1,1.4516,MR,medium,2
012EROP,left,images/base/8_b.png,images/combined/8_a_x_315_y_0_z_270.png,left,1,1.6169,MR,medium,3
012EROP,right,images/base/15_a.png,images/combined/15_a_x_45_y_0_z_90.png,right,1,1.0018,MR,medium,4
012EROP,left,images/base/1_a.png,images/combined/1_b_x_315_y_0_z_270.png,left,1,0.8653,MR,medium,5
012EROP,right,images/base/7_a.png,images/combined/7_a_x_45_y_0_z_270.png,right,1,0.954,MR,medium,6
012EROP,left,images/base/13_a.png,images/combined/13_b_x_45_y_0_z_90.png,right,0,0.8349,MR,medium,7
012EROP,left,images/base/16_a.png,images/combined/16_b_x_315_y_0_z_270.png,right,0,0.7009,MR,medium,8
012EROP,left,images/base/5_b.png,images/combined/5_a_x_315_y_0_z_270.png,left,1,2.8318,MR,medium,9
012EROP,left,images/base/3_b.png,images/combined/3_a_x_45_y_0_z_270.png,left,1,0.8503,MR,medium,10
012EROP,left,images/base/4_a.png,images/combined/4_b_x_315_y_0_z_270.png,right,0,1.0039,MR,medium,11
012EROP,right,images/base/11_b.png,images/combined/11_b_x_45_y_0_z_90.png,left,0,1.0019,MR,medium,12
012EROP,right,images/base/6_b.png,images/combined/6_b_x_45_y_0_z_90.png,left,0,0.9839,MR,medium,13
012EROP,right,images/base/12_b.png,images/combined/12_b_x_45_y_0_z_90.png,left,0,0.7511,MR,medium,14
012EROP,left,images/base/10_b.png,images/combined/10_a_x_45_y_0_z_90.png,right,0,0.9838,MR,medium,15
012EROP,left,images/base/9_b.png,images/combined/9_a_x_315_y_0_z_270.png,left,1,13.3716,MR,medium,16
012EROP,left,images/base/15_b.png,images/combined/15_a_x_90_y_0_z_90.png,right,0,2.1025,MR,hard,1
012EROP,left,images/base/1_b.png,images/combined/1_a_x_270_y_0_z_270.png,right,0,3.3814,MR,hard,2
012EROP,left,images/base/8_a.png,images/combined/8_b_x_270_y_0_z_270.png,right,0,5.4346,MR,hard,3
012EROP,right,images/base/12_b.png,images/combined/12_b_x_90_y_0_z_270.png,left,0,2.3567,MR,hard,4
012EROP,left,images/base/13_b.png,images/combined/13_a_x_90_y_0_z_270.png,left,1,3.948,MR,hard,5
012EROP,left,images/base/4_b.png,images/combined/4_a_x_90_y_0_z_90.png,right,0,8.3336,MR,hard,6
012EROP,left,images/base/10_b.png,images/combined/10_a_x_90_y_0_z_270.png,right,0,1.7867,MR,hard,7
012EROP,right,images/base/16_a.png,images/combined/16_a_x_270_y_0_z_90.png,left,0,1.92,MR,hard,8
012EROP,left,images/base/14_b.png,images/combined/14_a_x_90_y_0_z_90.png,right,0,2.467,MR,hard,9
012EROP,right,images/base/5_a.png,images/combined/5_a_x_270_y_0_z_270.png,left,0,2.2726,MR,hard,10
012EROP,right,images/base/11_b.png,images/combined/11_b_x_270_y_0_z_90.png,left,0,1.2823,MR,hard,11
012EROP,left,images/base/3_b.png,images/combined/3_a_x_270_y_0_z_270.png,left,1,1.4463,MR,hard,12
012EROP,right,images/base/2_b.png,images/combined/2_b_x_270_y_0_z_270.png,left,0,1.1346,MR,hard,13
012EROP,right,images/base/9_b.png,images/combined/9_b_x_270_y_0_z_270.png,right,1,1.0234,MR,hard,14
012EROP,right,images/base/7_b.png,images/combined/7_b_x_90_y_0_z_90.png,right,1,0.8533,MR,hard,15
012EROP,right,images/base/6_b.png,images/combined/6_b_x_270_y_0_z_270.png,right,1,0.8501,MR,hard,16
013ERVB,left,images/base/13_a.png,images/combined/13_b_x_0_y_0_z_45.png,left,1,15.632,MR,easy,1
013ERVB,right,images/base/14_a.png,images/combined/14_a_x_0_y_0_z_315.png,right,1,4.328,MR,easy,2
013ERVB,left,images/base/7_b.png,images/combined/7_a_x_0_y_0_z_45.png,right,0,18.308,MR,easy,3
013ERVB,left,images/base/1_a.png,images/combined/1_b_x_0_y_0_z_315.png,left,1,7.45,MR,easy,4
013ERVB,right,images/base/11_a.png,images/combined/11_a_x_0_y_0_z_45.png,left,0,13.366,MR,easy,5
013ERVB,left,images/base/4_b.png,images/combined/4_a_x_0_y_0_z_45.png,left,1,3.942,MR,easy,6
013ERVB,left,images/base/8_a.png,images/combined/8_b_x_0_y_0_z_45.png,left,1,4.041,MR,easy,7
013ERVB,left,images/base/16_b.png,images/combined/16_a_x_0_y_0_z_45.png,right,0,33.39,MR,easy,8
013ERVB,right,images/base/6_a.png,images/combined/6_a_x_0_y_0_z_315.png,right,1,11.608,MR,easy,9
013ERVB,left,images/base/2_b.png,images/combined/2_a_x_0_y_0_z_45.png,left,1,7.786,MR,easy,10
013ERVB,right,images/base/15_b.png,images/combined/15_b_x_0_y_0_z_45.png,right,1,2.001,MR,easy,11
013ERVB,right,images/base/10_a.png,images/combined/10_a_x_0_y_0_z_45.png,right,1,1.993,MR,easy,12
013ERVB,right,images/base/5_a.png,images/combined/5_a_x_0_y_0_z_315.png,right,1,2.602,MR,easy,13
013ERVB,left,images/base/3_a.png,images/combined/3_b_x_0_y_0_z_45.png,left,1,5.766,MR,easy,14
013ERVB,right,images/base/12_a.png,images/combined/12_a_x_0_y_0_z_315.png,right,1,3.365,MR,easy,15
013ERVB,left,images/base/9_b.png,images/combined/9_a_x_0_y_0_z_315.png,left,1,3.851,MR,easy,16
013ERVB,right,images/base/8_a.png,images/combined/8_a_x_45_y_0_z_270.png,right,1,12.795,MR,medium,1
013ERVB,left,images/base/12_a.png,images/combined/12_b_x_315_y_0_z_90.png,left,1,13.833,MR,medium,2
013ERVB,left,images/base/10_b.png,images/combined/10_a_x_315_y_0_z_90.png,right,0,13.19,MR,medium,3
013ERVB,left,images/base/6_b.png,images/combined/6_a_x_315_y_0_z_90.png,left,1,9.385,MR,medium,4
013ERVB,right,images/base/16_a.png,images/combined/16_a_x_315_y_0_z_270.png,left,0,9.009,MR,medium,5
013ERVB,right,images/base/15_b.png,images/combined/15_b_x_315_y_0_z_270.png,right,1,30.269,MR,medium,6
013ERVB,right,images/base/3_a.png,images/combined/3_a_x_45_y_0_z_90.png,right,1,9.308,MR,medium,7
013ERVB,left,images/base/2_a.png,images/combined/2_b_x_45_y_0_z_90.png,left,1,8.1,MR,medium,8
013ERVB,left,images/base/4_b.png,images/combined/4_a_x_45_y_0_z_270.png,left,1,5.476,MR,medium,9
013ERVB,right,images/base/14_b.png,images/combined/14_b_x_315_y_0_z_270.png,right,1,19.549,MR,medium,10
013ERVB,left,images/base/13_a.png,images/combined/13_b_x_45_y_0_z_90.png,left,1,10.17,MR,medium,11
013ERVB,right,images/base/5_a.png,images/combined/5_a_x_315_y_0_z_270.png,right,1,6.5,MR,medium,12
013ERVB,left,images/base/9_b.png,images/combined/9_a_x_315_y_0_z_90.png,left,1,24.226,MR,medium,13
013ERVB,left,images/base/1_b.png,images/combined/1_a_x_315_y_0_z_90.png,left,1,11.893,MR,medium,14
013ERVB,right,images/base/11_b.png,images/combined/11_b_x_315_y_0_z_90.png,right,1,27.268,MR,medium,15
013ERVB,left,images/base/7_a.png,images/combined/7_b_x_45_y_0_z_270.png,left,1,10.043,MR,medium,16
013ERVB,right,images/base/15_a.png,images/combined/15_a_x_270_y_0_z_90.png,left,0,10.794,MR,hard,1
013ERVB,right,images/base/5_b.png,images/combined/5_b_x_90_y_0_z_270.png,right,1,5.553,MR,hard,2
013ERVB,right,images/base/9_a.png,images/combined/9_a_x_270_y_0_z_90.png,right,1,2.366,MR,hard,3
013ERVB,left,images/base/16_b.png,images/combined/16_a_x_270_y_0_z_270.png,left,1,9.998,MR,hard,4
013ERVB,left,images/base/12_a.png,images/combined/12_b_x_90_y_0_z_90.png,left,1,9.194,MR,hard,5
013ERVB,right,images/base/4_b.png,images/combined/4_b_x_270_y_0_z_90.png,right,1,8.656,MR,hard,6
013ERVB,right,images/base/1_b.png,images/combined/1_b_x_90_y_0_z_90.png,left,0,21.659,MR,hard,7
013ERVB,left,images/base/8_b.png,images/combined/8_a_x_90_y_0_z_270.png,left,1,10.491,MR,hard,8
013ERVB,left,images/base/10_b.png,images/combined/10_a_x_270_y_0_z_90.png,left,1,3.943,MR,hard,9
013ERVB,left,images/base/11_a.png,images/combined/11_b_x_90_y_0_z_90.png,left,1,15.201,MR,hard,10
013ERVB,left,images/base/3_a.png,images/combined/3_b_x_270_y_0_z_90.png,left,1,10.224,MR,hard,11
013ERVB,left,images/base/13_a.png,images/combined/13_b_x_90_y_0_z_90.png,left,1,8.949,MR,hard,12
013ERVB,left,images/base/2_b.png,images/combined/2_a_x_270_y_0_z_90.png,left,1,10.458,MR,hard,13
013ERVB,right,images/base/7_b.png,images/combined/7_b_x_90_y_0_z_270.png,right,1,7.787,MR,hard,14
013ERVB,left,images/base/14_b.png,images/combined/14_a_x_270_y_0_z_270.png,left,1,4.217,MR,hard,15
013ERVB,right,images/base/6_a.png,images/combined/6_a_x_90_y_0_z_90.png,left,0,19.108,MR,hard,16
014ERAI,left,images/base/7_a.png,images/combined/7_b_x_0_y_0_z_45.png,left,1,8.0046,MR,easy,1
014ERAI,right,images/base/11_b.png,images/combined/11_b_x_0_y_0_z_315.png,right,1,4.9076,MR,easy,2
014ERAI,right,images/base/14_a.png,images/combined/14_a_x_0_y_0_z_315.png,right,1,6.4194,MR,easy,3
014ERAI,left,images/base/6_b.png,images/combined/6_a_x_0_y_0_z_315.png,left,1,4.2676,MR,easy,4
014ERAI,left,images/base/12_a.png,images/combined/12_b_x_0_y_0_z_315.png,right,0,6.107,MR,easy,5
014ERAI,right,images/base/4_b.png,images/combined/4_b_x_0_y_0_z_45.png,right,1,5.6014,MR,easy,6
014ERAI,right,images/base/1_b.png,images/combined/1_b_x_0_y_0_z_45.png,right,1,4.0163,MR,easy,7
014ERAI,right,images/base/8_b.png,images/combined/8_b_x_0_y_0_z_45.png,right,1,2.4667,MR,easy,8
014ERAI,left,images/base/13_a.png,images/combined/13_b_x_0_y_0_z_315.png,left,1,3.1418,MR,easy,9
014ERAI,left,images/base/10_b.png,images/combined/10_a_x_0_y_0_z_315.png,left,1,7.0014,MR,easy,10
014ERAI,left,images/base/2_a.png,images/combined/2_b_x_0_y_0_z_315.png,left,1,8.9445,MR,easy,11
014ERAI,right,images/base/16_a.png,images/combined/16_a_x_0_y_0_z_315.png,right,1,5.4698,MR,easy,12
014ERAI,left,images/base/9_a.png,images/combined/9_b_x_0_y_0_z_315.png,left,1,7.7153,MR,easy,13
014ERAI,left,images/base/3_a.png,images/combined/3_b_x_0_y_0_z_45.png,left,1,6.8523,MR,easy,14
014ERAI,right,images/base/5_b.png,images/combined/5_b_x_0_y_0_z_45.png,right,1,4.0004,MR,easy,15
014ERAI,left,images/base/15_a.png,images/combined/15_b_x_0_y_0_z_45.png,right,0,4.8736,MR,easy,16
014ERAI,right,images/base/15_b.png,images/combined/15_b_x_315_y_0_z_270.png,right,1,3.3759,MR,medium,1
014ERAI,left,images/base/16_a.png,images/combined/16_b_x_45_y_0_z_90.png,right,0,5.1016,MR,medium,2
014ERAI,left,images/base/1_b.png,images/combined/1_a_x_45_y_0_z_270.png,right,0,3.506,MR,medium,3
014ERAI,left,images/base/3_a.png,images/combined/3_b_x_45_y_0_z_270.png,left,1,4.9233,MR,medium,4
014ERAI,right,images/base/11_a.png,images/combined/11_a_x_315_y_0_z_270.png,right,1,4.1935,MR,medium,5
014ERAI,right,images/base/2_a.png,images/combined/2_a_x_45_y_0_z_270.png,right,1,3.8834,MR,medium,6
014ERAI,right,images/base/5_b.png,images/combined/5_b_x_315_y_0_z_270.png,right,1,5.4741,MR,medium,7
014ERAI,left,images/base/8_a.png,images/combined/8_b_x_45_y_0_z_270.png,left,1,10.2826,MR,medium,8
014ERAI,left,images/base/13_a.png,images/combined/13_b_x_45_y_0_z_270.png,left,1,6.6495,MR,medium,9
014ERAI,left,images/base/4_b.png,images/combined/4_a_x_45_y_0_z_90.png,left,1,5.9178,MR,medium,10
014ERAI,left,images/base/7_a.png,images/combined/7_b_x_45_y_0_z_90.png,right,0,6.2505,MR,medium,11
014ERAI,left,images/base/12_b.png,images/combined/12_a_x_45_y_0_z_270.png,right,0,3.272,MR,medium,12
014ERAI,left,images/base/6_b.png,images/combined/6_a_x_45_y_0_z_270.png,left,1,2.8167,MR,medium,13
014ERAI,right,images/base/9_b.png,images/combined/9_b_x_45_y_0_z_270.png,right,1,4.151,MR,medium,14
014ERAI,left,images/base/10_b.png,images/combined/10_a_x_45_y_0_z_90.png,right,0,6.3831,MR,medium,15
014ERAI,left,images/base/14_b.png,images/combined/14_a_x_45_y_0_z_90.png,left,1,3.5231,MR,medium,16
014ERAI,left,images/base/14_a.png,images/combined/14_b_x_270_y_0_z_270.png,left,1,6.0562,MR,hard,1
014ERAI,right,images/base/3_b.png,images/combined/3_b_x_270_y_0_z_270.png,left,0,8.7248,MR,hard,2
014ERAI,right,images/base/15_b.png,images/combined/15_b_x_90_y_0_z_270.png,right,1,8.8434,MR,hard,3
014ERAI,left,images/base/5_b.png,images/combined/5_a_x_90_y_0_z_90.png,left,1,8.6177,MR,hard,4
014ERAI,right,images/base/1_a.png,images/combined/1_a_x_270_y_0_z_90.png,left,0,5.5912,MR,hard,5
014ERAI,left,images/base/16_b.png,images/combined/16_a_x_90_y_0_z_270.png,left,1,3.7877,MR,hard,6
014ERAI,right,images/base/7_a.png,images/combined/7_a_x_270_y_0_z_90.png,left,0,5.2507,MR,hard,7
014ERAI,right,images/base/11_b.png,images/combined/11_b_x_270_y_0_z_90.png,right,1,6.3834,MR,hard,8
014ERAI,left,images/base/4_a.png,images/combined/4_b_x_90_y_0_z_270.png,right,0,7.5182,MR,hard,9
014ERAI,right,images/base/2_b.png,images/combined/2_b_x_90_y_0_z_90.png,left,0,5.8507,MR,hard,10
014ERAI,left,images/base/10_a.png,images/combined/10_b_x_270_y_0_z_270.png,left,1,6.2164,MR,hard,11
014ERAI,left,images/base/9_a.png,images/combined/9_b_x_270_y_0_z_90.png,right,0,5.0175,MR,hard,12
014ERAI,left,images/base/12_a.png,images/combined/12_b_x_270_y_0_z_270.png,right,0,12.4519,MR,hard,13
014ERAI,right,images/base/8_b.png,images/combined/8_b_x_90_y_0_z_90.png,left,0,6.3571,MR,hard,14
014ERAI,left,images/base/13_b.png,images/combined/13_a_x_90_y_0_z_90.png,left,1,4.8001,MR,hard,15
014ERAI,right,images/base/6_a.png,images/combined/6_a_x_270_y_0_z_90.png,left,0,3.9896,MR,hard,16
016ERSA,right,images/base/4_b.png,images/combined/4_b_x_0_y_0_z_315.png,right,1,2.9524,MR,easy,1
016ERSA,right,images/base/16_b.png,images/combined/16_b_x_0_y_0_z_315.png,right,1,3.8346,MR,easy,2
016ERSA,right,images/base/11_b.png,images/combined/11_b_x_0_y_0_z_45.png,right,1,3.6981,MR,easy,3
016ERSA,right,images/base/1_a.png,images/combined/1_a_x_0_y_0_z_315.png,right,1,3.7466,MR,easy,4
016ERSA,right,images/base/12_a.png,images/combined/12_a_x_0_y_0_z_45.png,right,1,5.6425,MR,easy,5
016ERSA,right,images/base/15_b.png,images/combined/15_b_x_0_y_0_z_45.png,right,1,6.8977,MR,easy,6
016ERSA,left,images/base/7_b.png,images/combined/7_a_x_0_y_0_z_315.png,right,0,5.2645,MR,easy,7
016ERSA,right,images/base/6_b.png,images/combined/6_b_x_0_y_0_z_45.png,right,1,8.5133,MR,easy,8
016ERSA,right,images/base/10_b.png,images/combined/10_b_x_0_y_0_z_315.png,right,1,9.7024,MR,easy,9
016ERSA,right,images/base/8_a.png,images/combined/8_a_x_0_y_0_z_45.png,right,1,5.7336,MR,easy,10
016ERSA,right,images/base/3_b.png,images/combined/3_b_x_0_y_0_z_45.png,right,1,3.5047,MR,easy,11
016ERSA,right,images/base/13_b.png,images/combined/13_b_x_0_y_0_z_45.png,right,1,3.3263,MR,easy,12
016ERSA,left,images/base/14_b.png,images/combined/14_a_x_0_y_0_z_45.png,left,1,9.7742,MR,easy,13
016ERSA,left,images/base/2_a.png,images/combined/2_b_x_0_y_0_z_315.png,left,1,7.5755,MR,easy,14
016ERSA,left,images/base/9_b.png,images/combined/9_a_x_0_y_0_z_315.png,right,0,6.3665,MR,easy,15
016ERSA,left,images/base/5_b.png,images/combined/5_a_x_0_y_0_z_45.png,left,1,6.0248,MR,easy,16
016ERSA,left,images/base/14_a.png,images/combined/14_b_x_45_y_0_z_90.png,left,1,6.5801,MR,medium,1
016ERSA,right,images/base/5_a.png,images/combined/5_a_x_45_y_0_z_90.png,right,1,6.0718,MR,medium,2
016ERSA,right,images/base/11_b.png,images/combined/11_b_x_45_y_0_z_90.png,right,1,8.6512,MR,medium,3
016ERSA,left,images/base/13_b.png,images/combined/13_a_x_315_y_0_z_270.png,left,1,5.8111,MR,medium,4
016ERSA,left,images/base/2_b.png,images/combined/2_a_x_45_y_0_z_90.png,left,1,10.8252,MR,medium,5
016ERSA,left,images/base/4_a.png,images/combined/4_b_x_45_y_0_z_90.png,left,1,9.1014,MR,medium,6
016ERSA,right,images/base/3_a.png,images/combined/3_a_x_45_y_0_z_270.png,right,1,8.7677,MR,medium,7
016ERSA,right,images/base/6_b.png,images/combined/6_b_x_45_y_0_z_90.png,right,1,7.8829,MR,medium,8
016ERSA,left,images/base/10_a.png,images/combined/10_b_x_315_y_0_z_90.png,left,1,39.531,MR,medium,9
016ERSA,left,images/base/8_b.png,images/combined/8_a_x_45_y_0_z_270.png,left,1,9.3886,MR,medium,10
016ERSA,right,images/base/12_b.png,images/combined/12_b_x_315_y_0_z_270.png,right,1,8.4141,MR,medium,11
016ERSA,left,images/base/1_a.png,images/combined/1_b_x_45_y_0_z_270.png,left,1,22.7356,MR,medium,12
016ERSA,right,images/base/9_b.png,images/combined/9_b_x_45_y_0_z_90.png,right,1,10.1384,MR,medium,13
016ERSA,right,images/base/15_a.png,images/combined/15_a_x_315_y_0_z_90.png,left,0,11.3317,MR,medium,14
016ERSA,right,images/base/7_b.png,images/combined/7_b_x_45_y_0_z_90.png,left,0,13.31,MR,medium,15
016ERSA,right,images/base/16_a.png,images/combined/16_a_x_315_y_0_z_90.png,left,0,3.4603,MR,medium,16
016ERSA,left,images/base/11_a.png,images/combined/11_b_x_270_y_0_z_90.png,left,1,10.1423,MR,hard,1
016ERSA,right,images/base/16_a.png,images/combined/16_a_x_90_y_0_z_270.png,left,0,13.3493,MR,hard,2
016ERSA,left,images/base/8_a.png,images/combined/8_b_x_270_y_0_z_90.png,left,1,27.0341,MR,hard,3
016ERSA,right,images/base/6_b.png,images/combined/6_b_x_270_y_0_z_90.png,right,1,5.4186,MR,hard,4
016ERSA,left,images/base/12_a.png,images/combined/12_b_x_270_y_0_z_90.png,left,1,22.518,MR,hard,5
016ERSA,right,images/base/1_b.png,images/combined/1_b_x_270_y_0_z_270.png,left,0,10.5658,MR,hard,6
016ERSA,right,images/base/3_a.png,images/combined/3_a_x_90_y_0_z_90.png,left,0,17.6033,MR,hard,7
016ERSA,left,images/base/5_b.png,images/combined/5_a_x_270_y_0_z_90.png,left,1,11.401,MR,hard,8
016ERSA,left,images/base/2_a.png,images/combined/2_b_x_90_y_0_z_90.png,left,1,28.5169,MR,hard,9
016ERSA,right,images/base/9_b.png,images/combined/9_b_x_270_y_0_z_270.png,right,1,33.8497,MR,hard,10
016ERSA,left,images/base/10_a.png,images/combined/10_b_x_90_y_0_z_90.png,left,1,14.8672,MR,hard,11
016ERSA,right,images/base/4_a.png,images/combined/4_a_x_270_y_0_z_90.png,right,1,9.6503,MR,hard,12
016ERSA,right,images/base/7_b.png,images/combined/7_b_x_90_y_0_z_270.png,right,1,29.357,MR,hard,13
016ERSA,right,images/base/15_b.png,images/combined/15_b_x_90_y_0_z_90.png,right,1,7.792,MR,hard,14
016ERSA,right,images/base/14_b.png,images/combined/14_b_x_90_y_0_z_90.png,right,1,31.2194,MR,hard,15
016ERSA,right,images/base/13_a.png,images/combined/13_a_x_270_y_0_z_90.png,right,1,5.7001,MR,hard,16
019ERSM,right,images/base/12_b.png,images/combined/12_b_x_0_y_0_z_315.png,right,1,9.3485,MR,easy,1
019ERSM,left,images/base/2_a.png,images/combined/2_b_x_0_y_0_z_45.png,left,1,2.63,MR,easy,2
019ERSM,left,images/base/5_a.png,images/combined/5_b_x_0_y_0_z_45.png,left,1,2.1065,MR,easy,3
019ERSM,left,images/base/4_b.png,images/combined/4_a_x_0_y_0_z_315.png,left,1,2.37,MR,easy,4
019ERSM,left,images/base/11_b.png,images/combined/11_a_x_0_y_0_z_315.png,left,1,2.0731,MR,easy,5
019ERSM,right,images/base/7_a.png,images/combined/7_a_x_0_y_0_z_315.png,right,1,3.4414,MR,easy,6
019ERSM,left,images/base/8_a.png,images/combined/8_b_x_0_y_0_z_315.png,left,1,3.0447,MR,easy,7
019ERSM,right,images/base/3_b.png,images/combined/3_b_x_0_y_0_z_315.png,right,1,1.7624,MR,easy,8
019ERSM,right,images/base/13_a.png,images/combined/13_a_x_0_y_0_z_315.png,left,0,1.8521,MR,easy,9
019ERSM,right,images/base/6_a.png,images/combined/6_a_x_0_y_0_z_315.png,right,1,3.2844,MR,easy,10
019ERSM,left,images/base/10_a.png,images/combined/10_b_x_0_y_0_z_315.png,left,1,3.0649,MR,easy,11
019ERSM,left,images/base/15_a.png,images/combined/15_b_x_0_y_0_z_45.png,left,1,4.9963,MR,easy,12
019ERSM,right,images/base/9_a.png,images/combined/9_a_x_0_y_0_z_45.png,right,1,3.1363,MR,easy,13
019ERSM,left,images/base/14_a.png,images/combined/14_b_x_0_y_0_z_315.png,left,1,2.2361,MR,easy,14
019ERSM,left,images/base/1_b.png,images/combined/1_a_x_0_y_0_z_45.png,right,0,5.1679,MR,easy,15
019ERSM,right,images/base/16_a.png,images/combined/16_a_x_0_y_0_z_315.png,right,1,5.3715,MR,easy,16
019ERSM,left,images/base/7_a.png,images/combined/7_b_x_45_y_0_z_90.png,left,1,6.0715,MR,medium,1
019ERSM,left,images/base/14_b.png,images/combined/14_a_x_45_y_0_z_90.png,left,1,2.8474,MR,medium,2
019ERSM,right,images/base/11_a.png,images/combined/11_a_x_45_y_0_z_270.png,right,1,4.1766,MR,medium,3
019ERSM,left,images/base/9_b.png,images/combined/9_a_x_315_y_0_z_90.png,left,1,8.9762,MR,medium,4
019ERSM,left,images/base/6_b.png,images/combined/6_a_x_45_y_0_z_90.png,left,1,5.0663,MR,medium,5
019ERSM,right,images/base/4_a.png,images/combined/4_a_x_45_y_0_z_90.png,right,1,2.3966,MR,medium,6
019ERSM,left,images/base/5_a.png,images/combined/5_b_x_45_y_0_z_90.png,left,1,5.9075,MR,medium,7
019ERSM,left,images/base/12_a.png,images/combined/12_b_x_315_y_0_z_270.png,left,1,5.1836,MR,medium,8
019ERSM,right,images/base/1_a.png,images/combined/1_a_x_45_y_0_z_270.png,right,1,6.0228,MR,medium,9
019ERSM,right,images/base/15_a.png,images/combined/15_a_x_45_y_0_z_270.png,right,1,7.799,MR,medium,10
019ERSM,left,images/base/16_b.png,images/combined/16_a_x_45_y_0_z_90.png,left,1,8.8716,MR,medium,11
019ERSM,left,images/base/13_a.png,images/combined/13_b_x_315_y_0_z_270.png,left,1,3.0292,MR,medium,12
019ERSM,left,images/base/10_b.png,images/combined/10_a_x_45_y_0_z_90.png,left,1,2.3845,MR,medium,13
019ERSM,left,images/base/2_b.png,images/combined/2_a_x_315_y_0_z_270.png,left,1,4.3357,MR,medium,14
019ERSM,right,images/base/8_a.png,images/combined/8_a_x_315_y_0_z_270.png,right,1,4.2232,MR,medium,15
019ERSM,right,images/base/3_a.png,images/combined/3_a_x_45_y_0_z_90.png,right,1,3.0384,MR,medium,16
019ERSM,right,images/base/12_b.png,images/combined/12_b_x_270_y_0_z_270.png,right,1,5.0966,MR,hard,1
019ERSM,left,images/base/2_b.png,images/combined/2_a_x_90_y_0_z_270.png,left,1,5.8611,MR,hard,2
019ERSM,right,images/base/4_a.png,images/combined/4_a_x_270_y_0_z_270.png,right,1,8.6339,MR,hard,3
019ERSM,left,images/base/7_a.png,images/combined/7_b_x_90_y_0_z_270.png,left,1,4.129,MR,hard,4
019ERSM,left,images/base/14_a.png,images/combined/14_b_x_270_y_0_z_270.png,left,1,5.6001,MR,hard,5
019ERSM,left,images/base/15_b.png,images/combined/15_a_x_90_y_0_z_90.png,left,1,10.6179,MR,hard,6
019ERSM,left,images/base/3_a.png,images/combined/3_b_x_90_y_0_z_270.png,left,1,6.6956,MR,hard,7
019ERSM,left,images/base/8_b.png,images/combined/8_a_x_90_y_0_z_270.png,left,1,13.7211,MR,hard,8
019ERSM,left,images/base/10_a.png,images/combined/10_b_x_270_y_0_z_270.png,left,1,9.6025,MR,hard,9
019ERSM,left,images/base/13_a.png,images/combined/13_b_x_270_y_0_z_270.png,left,1,10.1159,MR,hard,10
019ERSM,right,images/base/9_a.png,images/combined/9_a_x_270_y_0_z_90.png,right,1,8.3069,MR,hard,11
019ERSM,right,images/base/1_a.png,images/combined/1_a_x_270_y_0_z_270.png,right,1,2.9132,MR,hard,12
019ERSM,right,images/base/11_b.png,images/combined/11_b_x_90_y_0_z_270.png,right,1,7.4927,MR,hard,13
019ERSM,left,images/base/5_b.png,images/combined/5_a_x_90_y_0_z_270.png,left,1,13.1634,MR,hard,14
019ERSM,left,images/base/6_b.png,images/combined/6_a_x_90_y_0_z_90.png,left,1,9.6121,MR,hard,15
019ERSM,left,images/base/16_b.png,images/combined/16_a_x_270_y_0_z_270.png,left,1,28.9494,MR,hard,16
021SSAZ,right,images/base/7_b.png,images/combined/7_b_x_0_y_0_z_315.png,right,1,4.0231,MR,easy,1
021SSAZ,right,images/base/9_b.png,images/combined/9_b_x_0_y_0_z_45.png,left,0,2.7823,MR,easy,2
021SSAZ,right,images/base/3_b.png,images/combined/3_b_x_0_y_0_z_315.png,right,1,3.2501,MR,easy,3
021SSAZ,right,images/base/5_b.png,images/combined/5_b_x_0_y_0_z_315.png,right,1,4.0256,MR,easy,4
021SSAZ,right,images/base/1_a.png,images/combined/1_a_x_0_y_0_z_45.png,left,0,2.0574,MR,easy,5
021SSAZ,left,images/base/15_a.png,images/combined/15_b_x_0_y_0_z_315.png,left,1,3.2578,MR,easy,6
021SSAZ,right,images/base/8_b.png,images/combined/8_b_x_0_y_0_z_45.png,right,1,2.1793,MR,easy,7
021SSAZ,left,images/base/4_a.png,images/combined/4_b_x_0_y_0_z_315.png,left,1,2.4723,MR,easy,8
021SSAZ,left,images/base/12_b.png,images/combined/12_a_x_0_y_0_z_315.png,right,0,4.8743,MR,easy,9
021SSAZ,right,images/base/11_a.png,images/combined/11_a_x_0_y_0_z_315.png,right,1,9.7598,MR,easy,10
021SSAZ,left,images/base/16_b.png,images/combined/16_a_x_0_y_0_z_315.png,left,1,4.4401,MR,easy,11
021SSAZ,right,images/base/6_b.png,images/combined/6_b_x_0_y_0_z_45.png,right,1,2.8149,MR,easy,12
021SSAZ,left,images/base/14_b.png,images/combined/14_a_x_0_y_0_z_45.png,left,1,1.9243,MR,easy,13
021SSAZ,left,images/base/13_a.png,images/combined/13_b_x_0_y_0_z_315.png,left,1,3.399,MR,easy,14
021SSAZ,right,images/base/2_a.png,images/combined/2_a_x_0_y_0_z_315.png,right,1,2.382,MR,easy,15
021SSAZ,right,images/base/10_a.png,images/combined/10_a_x_0_y_0_z_315.png,right,1,3.5189,MR,easy,16
021SSAZ,right,images/base/9_a.png,images/combined/9_a_x_315_y_0_z_270.png,left,0,4.208,MR,medium,1
021SSAZ,right,images/base/4_a.png,images/combined/4_a_x_45_y_0_z_90.png,right,1,3.6568,MR,medium,2
021SSAZ,left,images/base/14_b.png,images/combined/14_a_x_315_y_0_z_270.png,left,1,3.8644,MR,medium,3
021SSAZ,left,images/base/1_b.png,images/combined/1_a_x_45_y_0_z_90.png,left,1,2.5434,MR,medium,4
021SSAZ,left,images/base/16_b.png,images/combined/16_a_x_45_y_0_z_270.png,left,1,3.9358,MR,medium,5
021SSAZ,left,images/base/5_b.png,images/combined/5_a_x_45_y_0_z_90.png,right,0,2.3952,MR,medium,6
021SSAZ,left,images/base/8_b.png,images/combined/8_a_x_45_y_0_z_270.png,left,1,3.2459,MR,medium,7
021SSAZ,left,images/base/11_b.png,images/combined/11_a_x_45_y_0_z_270.png,right,0,1.2145,MR,medium,8
021SSAZ,left,images/base/7_a.png,images/combined/7_b_x_315_y_0_z_90.png,left,1,2.0072,MR,medium,9
021SSAZ,left,images/base/6_a.png,images/combined/6_b_x_45_y_0_z_270.png,left,1,3.5657,MR,medium,10
021SSAZ,left,images/base/10_a.png,images/combined/10_b_x_45_y_0_z_90.png,left,1,1.8645,MR,medium,11
021SSAZ,right,images/base/15_b.png,images/combined/15_b_x_45_y_0_z_270.png,left,0,1.9355,MR,medium,12
021SSAZ,left,images/base/2_b.png,images/combined/2_a_x_315_y_0_z_270.png,left,1,7.1666,MR,medium,13
021SSAZ,left,images/base/13_b.png,images/combined/13_a_x_315_y_0_z_270.png,left,1,4.1325,MR,medium,14
021SSAZ,right,images/base/3_a.png,images/combined/3_a_x_45_y_0_z_90.png,left,0,3.7458,MR,medium,15
021SSAZ,left,images/base/12_a.png,images/combined/12_b_x_45_y_0_z_270.png,right,0,3.4931,MR,medium,16
021SSAZ,left,images/base/10_b.png,images/combined/10_a_x_270_y_0_z_90.png,left,1,2.9857,MR,hard,1
021SSAZ,left,images/base/11_a.png,images/combined/11_b_x_90_y_0_z_270.png,left,1,4.9294,MR,hard,2
021SSAZ,left,images/base/15_a.png,images/combined/15_b_x_270_y_0_z_90.png,right,0,2.9345,MR,hard,3
021SSAZ,left,images/base/16_b.png,images/combined/16_a_x_90_y_0_z_270.png,left,1,4.6344,MR,hard,4
021SSAZ,left,images/base/6_a.png,images/combined/6_b_x_270_y_0_z_90.png,left,1,3.1749,MR,hard,5
021SSAZ,right,images/base/7_b.png,images/combined/7_b_x_90_y_0_z_90.png,right,1,6.9515,MR,hard,6
021SSAZ,right,images/base/14_b.png,images/combined/14_b_x_90_y_0_z_90.png,right,1,5.3811,MR,hard,7
021SSAZ,left,images/base/1_b.png,images/combined/1_a_x_90_y_0_z_270.png,left,1,2.914,MR,hard,8
021SSAZ,left,images/base/12_a.png,images/combined/12_b_x_270_y_0_z_270.png,left,1,4.3605,MR,hard,9
021SSAZ,right,images/base/8_a.png,images/combined/8_a_x_90_y_0_z_270.png,left,0,4.7752,MR,hard,10
021SSAZ,right,images/base/5_b.png,images/combined/5_b_x_90_y_0_z_270.png,left,0,4.75,MR,hard,11
021SSAZ,right,images/base/3_a.png,images/combined/3_a_x_270_y_0_z_270.png,right,1,2.9661,MR,hard,12
021SSAZ,right,images/base/4_a.png,images/combined/4_a_x_90_y_0_z_270.png,left,0,4.0619,MR,hard,13
021SSAZ,right,images/base/2_b.png,images/combined/2_b_x_270_y_0_z_90.png,right,1,2.1999,MR,hard,14
021SSAZ,left,images/base/13_a.png,images/combined/13_b_x_90_y_0_z_270.png,left,1,1.1986,MR,hard,15
021SSAZ,left,images/base/9_b.png,images/combined/9_a_x_270_y_0_z_90.png,right,0,4.015,MR,hard,16
022ERVS,right,images/base/11_b.png,images/combined/11_b_x_0_y_0_z_45.png,right,1,5.0664,MR,easy,1
022ERVS,right,images/base/7_a.png,images/combined/7_a_x_0_y_0_z_315.png,right,1,3.3877,MR,easy,2
022ERVS,left,images/base/4_a.png,images/combined/4_b_x_0_y_0_z_45.png,left,1,11.8666,MR,easy,3
022ERVS,right,images/base/16_a.png,images/combined/16_a_x_0_y_0_z_45.png,right,1,4.0516,MR,easy,4
022ERVS,left,images/base/10_b.png,images/combined/10_a_x_0_y_0_z_45.png,left,1,8.1175,MR,easy,5
022ERVS,right,images/base/3_a.png,images/combined/3_a_x_0_y_0_z_315.png,right,1,2.74,MR,easy,6
022ERVS,right,images/base/8_a.png,images/combined/8_a_x_0_y_0_z_315.png,right,1,3.2354,MR,easy,7
022ERVS,left,images/base/6_a.png,images/combined/6_b_x_0_y_0_z_45.png,left,1,4.4847,MR,easy,8
022ERVS,left,images/base/9_a.png,images/combined/9_b_x_0_y_0_z_45.png,left,1,4.939,MR,easy,9
022ERVS,right,images/base/5_b.png,images/combined/5_b_x_0_y_0_z_315.png,right,1,3.1598,MR,easy,10
022ERVS,right,images/base/15_b.png,images/combined/15_b_x_0_y_0_z_315.png,right,1,2.283,MR,easy,11
022ERVS,right,images/base/1_a.png,images/combined/1_a_x_0_y_0_z_315.png,right,1,2.3797,MR,easy,12
022ERVS,left,images/base/13_a.png,images/combined/13_b_x_0_y_0_z_45.png,left,1,2.4499,MR,easy,13
022ERVS,right,images/base/12_a.png,images/combined/12_a_x_0_y_0_z_315.png,right,1,2.7825,MR,easy,14
022ERVS,left,images/base/2_a.png,images/combined/2_b_x_0_y_0_z_45.png,left,1,3.3892,MR,easy,15
022ERVS,right,images/base/14_a.png,images/combined/14_a_x_0_y_0_z_45.png,right,1,2.4025,MR,easy,16
022ERVS,left,images/base/12_a.png,images/combined/12_b_x_45_y_0_z_270.png,left,1,28.339,MR,medium,1
022ERVS,right,images/base/4_b.png,images/combined/4_b_x_315_y_0_z_90.png,right,1,6.4507,MR,medium,2
022ERVS,right,images/base/11_a.png,images/combined/11_a_x_45_y_0_z_270.png,right,1,8.4014,MR,medium,3
022ERVS,right,images/base/9_b.png,images/combined/9_b_x_45_y_0_z_270.png,right,1,12.6166,MR,medium,4
022ERVS,right,images/base/16_a.png,images/combined/16_a_x_45_y_0_z_270.png,right,1,11.5974,MR,medium,5
022ERVS,left,images/base/5_b.png,images/combined/5_a_x_315_y_0_z_90.png,left,1,5.2503,MR,medium,6
022ERVS,right,images/base/7_a.png,images/combined/7_a_x_315_y_0_z_270.png,right,1,7.4671,MR,medium,7
022ERVS,right,images/base/14_a.png,images/combined/14_a_x_45_y_0_z_90.png,right,1,12.3509,MR,medium,8
022ERVS,right,images/base/6_b.png,images/combined/6_b_x_45_y_0_z_270.png,right,1,17.4959,MR,medium,9
022ERVS,left,images/base/8_a.png,images/combined/8_b_x_315_y_0_z_90.png,left,1,8.6171,MR,medium,10
022ERVS,left,images/base/1_a.png,images/combined/1_b_x_45_y_0_z_270.png,left,1,11.7637,MR,medium,11
022ERVS,left,images/base/13_a.png,images/combined/13_b_x_45_y_0_z_90.png,left,1,10.3676,MR,medium,12
022ERVS,left,images/base/10_b.png,images/combined/10_a_x_45_y_0_z_90.png,left,1,30.0957,MR,medium,13
022ERVS,left,images/base/15_b.png,images/combined/15_a_x_315_y_0_z_270.png,left,1,15.6257,MR,medium,14
022ERVS,left,images/base/2_a.png,images/combined/2_b_x_315_y_0_z_270.png,left,1,8.915,MR,medium,15
022ERVS,right,images/base/3_b.png,images/combined/3_b_x_315_y_0_z_90.png,right,1,4.1071,MR,medium,16
022ERVS,left,images/base/10_a.png,images/combined/10_b_x_90_y_0_z_90.png,left,1,12.2667,MR,hard,1
022ERVS,left,images/base/16_b.png,images/combined/16_a_x_270_y_0_z_270.png,right,0,9.2854,MR,hard,2
022ERVS,left,images/base/13_b.png,images/combined/13_a_x_270_y_0_z_90.png,left,1,7.5811,MR,hard,3
022ERVS,left,images/base/1_b.png,images/combined/1_a_x_270_y_0_z_270.png,left,1,8.5502,MR,hard,4
022ERVS,right,images/base/3_b.png,images/combined/3_b_x_90_y_0_z_90.png,right,1,9.5983,MR,hard,5
022ERVS,left,images/base/2_b.png,images/combined/2_a_x_270_y_0_z_270.png,left,1,22.2977,MR,hard,6
022ERVS,left,images/base/14_a.png,images/combined/14_b_x_270_y_0_z_270.png,left,1,7.9862,MR,hard,7
022ERVS,right,images/base/8_b.png,images/combined/8_b_x_270_y_0_z_90.png,right,1,5.9868,MR,hard,8
022ERVS,left,images/base/9_b.png,images/combined/9_a_x_90_y_0_z_90.png,left,1,14.155,MR,hard,9
022ERVS,left,images/base/6_a.png,images/combined/6_b_x_270_y_0_z_270.png,left,1,28.8954,MR,hard,10
022ERVS,left,images/base/12_b.png,images/combined/12_a_x_270_y_0_z_90.png,left,1,5.6484,MR,hard,11
022ERVS,left,images/base/4_a.png,images/combined/4_b_x_270_y_0_z_90.png,left,1,4.475,MR,hard,12
022ERVS,left,images/base/11_b.png,images/combined/11_a_x_270_y_0_z_90.png,left,1,10.4771,MR,hard,13
022ERVS,right,images/base/5_b.png,images/combined/5_b_x_90_y_0_z_90.png,right,1,7.0825,MR,hard,14
022ERVS,left,images/base/15_b.png,images/combined/15_a_x_90_y_0_z_90.png,left,1,9.6701,MR,hard,15
022ERVS,left,images/base/7_b.png,images/combined/7_a_x_270_y_0_z_270.png,left,1,6.5828,MR,hard,16
023ERRS,right,images/base/8_b.png,images/combined/8_b_x_0_y_0_z_45.png,right,1,4.023,MR,easy,1
023ERRS,left,images/base/11_a.png,images/combined/11_b_x_0_y_0_z_315.png,left,1,4.957,MR,easy,2
023ERRS,right,images/base/3_a.png,images/combined/3_a_x_0_y_0_z_45.png,right,1,3.125,MR,easy,3
023ERRS,left,images/base/10_b.png,images/combined/10_a_x_0_y_0_z_315.png,left,1,13.043,MR,easy,4
023ERRS,right,images/base/14_b.png,images/combined/14_b_x_0_y_0_z_315.png,right,1,3.458,MR,easy,5
023ERRS,right,images/base/12_a.png,images/combined/12_a_x_0_y_0_z_315.png,right,1,11.725,MR,easy,6
023ERRS,left,images/base/4_a.png,images/combined/4_b_x_0_y_0_z_315.png,left,1,4.661,MR,easy,7
023ERRS,right,images/base/13_b.png,images/combined/13_b_x_0_y_0_z_45.png,right,1,3.524,MR,easy,8
023ERRS,left,images/base/6_b.png,images/combined/6_a_x_0_y_0_z_315.png,left,1,6.942,MR,easy,9
023ERRS,right,images/base/7_a.png,images/combined/7_a_x_0_y_0_z_45.png,right,1,5.491,MR,easy,10
023ERRS,right,images/base/16_b.png,images/combined/16_b_x_0_y_0_z_45.png,right,1,3.241,MR,easy,11
023ERRS,right,images/base/2_b.png,images/combined/2_b_x_0_y_0_z_315.png,right,1,5.376,MR,easy,12
023ERRS,right,images/base/5_a.png,images/combined/5_a_x_0_y_0_z_45.png,right,1,4.172,MR,easy,13
023ERRS,left,images/base/9_a.png,images/combined/9_b_x_0_y_0_z_45.png,left,1,4.777,MR,easy,14
023ERRS,left,images/base/15_a.png,images/combined/15_b_x_0_y_0_z_45.png,left,1,14.741,MR,easy,15
023ERRS,right,images/base/1_a.png,images/combined/1_a_x_0_y_0_z_315.png,right,1,2.995,MR,easy,16
023ERRS,right,images/base/4_a.png,images/combined/4_a_x_45_y_0_z_90.png,left,0,6.789,MR,medium,1
023ERRS,right,images/base/10_b.png,images/combined/10_b_x_315_y_0_z_90.png,left,0,6.31,MR,medium,2
023ERRS,left,images/base/9_b.png,images/combined/9_a_x_315_y_0_z_90.png,right,0,5.36,MR,medium,3
023ERRS,right,images/base/14_a.png,images/combined/14_a_x_315_y_0_z_90.png,right,1,8.207,MR,medium,4
023ERRS,right,images/base/7_a.png,images/combined/7_a_x_315_y_0_z_270.png,right,1,5.41,MR,medium,5
023ERRS,left,images/base/13_b.png,images/combined/13_a_x_315_y_0_z_90.png,left,1,4.56,MR,medium,6
023ERRS,left,images/base/6_b.png,images/combined/6_a_x_315_y_0_z_270.png,left,1,8.559,MR,medium,7
023ERRS,left,images/base/3_a.png,images/combined/3_b_x_45_y_0_z_90.png,left,1,5.528,MR,medium,8
023ERRS,left,images/base/11_a.png,images/combined/11_b_x_315_y_0_z_90.png,left,1,12.46,MR,medium,9
023ERRS,right,images/base/8_a.png,images/combined/8_a_x_45_y_0_z_270.png,right,1,8.792,MR,medium,10
023ERRS,right,images/base/5_b.png,images/combined/5_b_x_315_y_0_z_90.png,right,1,4.47,MR,medium,11
023ERRS,left,images/base/2_a.png,images/combined/2_b_x_45_y_0_z_90.png,left,1,7.609,MR,medium,12
023ERRS,left,images/base/1_b.png,images/combined/1_a_x_45_y_0_z_270.png,left,1,9.709,MR,medium,13
023ERRS,left,images/base/15_b.png,images/combined/15_a_x_45_y_0_z_270.png,left,1,12.21,MR,medium,14
023ERRS,right,images/base/16_b.png,images/combined/16_b_x_315_y_0_z_90.png,left,0,8.294,MR,medium,15
023ERRS,right,images/base/12_a.png,images/combined/12_a_x_45_y_0_z_270.png,right,1,8.357,MR,medium,16
023ERRS,right,images/base/16_a.png,images/combined/16_a_x_90_y_0_z_90.png,right,1,5.606,MR,hard,1
023ERRS,right,images/base/6_b.png,images/combined/6_b_x_270_y_0_z_270.png,left,0,8.54,MR,hard,2
023ERRS,left,images/base/9_b.png,images/combined/9_a_x_90_y_0_z_90.png,left,1,9.771,MR,hard,3
023ERRS,left,images/base/15_b.png,images/combined/15_a_x_270_y_0_z_270.png,right,0,9.119,MR,hard,4
023ERRS,right,images/base/10_a.png,images/combined/10_a_x_90_y_0_z_270.png,right,1,8.476,MR,hard,5
023ERRS,right,images/base/13_a.png,images/combined/13_a_x_270_y_0_z_270.png,right,1,7.008,MR,hard,6
023ERRS,left,images/base/1_b.png,images/combined/1_a_x_90_y_0_z_270.png,left,1,5.933,MR,hard,7
023ERRS,left,images/base/8_a.png,images/combined/8_b_x_90_y_0_z_90.png,left,1,21.81,MR,hard,8
023ERRS,right,images/base/12_a.png,images/combined/12_a_x_270_y_0_z_90.png,right,1,7.36,MR,hard,9
023ERRS,left,images/base/11_b.png,images/combined/11_a_x_90_y_0_z_270.png,left,1,10.662,MR,hard,10
023ERRS,left,images/base/14_b.png,images/combined/14_a_x_90_y_0_z_270.png,left,1,9.875,MR,hard,11
023ERRS,right,images/base/4_b.png,images/combined/4_b_x_90_y_0_z_90.png,right,1,10.21,MR,hard,12
023ERRS,left,images/base/3_b.png,images/combined/3_a_x_90_y_0_z_90.png,left,1,11.523,MR,hard,13
023ERRS,right,images/base/2_b.png,images/combined/2_b_x_90_y_0_z_270.png,right,1,15.977,MR,hard,14
023ERRS,right,images/base/7_a.png,images/combined/7_a_x_270_y_0_z_90.png,left,0,4.808,MR,hard,15
023ERRS,right,images/base/5_a.png,images/combined/5_a_x_90_y_0_z_90.png,left,0,9.309,MR,hard,16
024SSSV,right,images/base/7_b.png,images/combined/7_b_x_0_y_0_z_45.png,right,1,5.0338,MR,easy,1
024SSSV,left,images/base/11_b.png,images/combined/11_a_x_0_y_0_z_45.png,left,1,4.5953,MR,easy,2
024SSSV,left,images/base/13_b.png,images/combined/13_a_x_0_y_0_z_45.png,left,1,5.8493,MR,easy,3
024SSSV,right,images/base/12_b.png,images/combined/12_b_x_0_y_0_z_45.png,right,1,6.1575,MR,easy,4
024SSSV,right,images/base/5_a.png,images/combined/5_a_x_0_y_0_z_315.png,right,1,3.15,MR,easy,5
024SSSV,left,images/base/2_a.png,images/combined/2_b_x_0_y_0_z_45.png,left,1,4.3343,MR,easy,6
024SSSV,right,images/base/4_b.png,images/combined/4_b_x_0_y_0_z_45.png,right,1,2.4438,MR,easy,7
024SSSV,right,images/base/8_a.png,images/combined/8_a_x_0_y_0_z_45.png,right,1,2.7159,MR,easy,8
024SSSV,left,images/base/1_b.png,images/combined/1_a_x_0_y_0_z_315.png,left,1,2.2368,MR,easy,9
024SSSV,right,images/base/15_a.png,images/combined/15_a_x_0_y_0_z_45.png,right,1,6.3992000000000004,MR,easy,10
024SSSV,left,images/base/3_a.png,images/combined/3_b_x_0_y_0_z_45.png,left,1,2.9509,MR,easy,11
024SSSV,right,images/base/10_b.png,images/combined/10_b_x_0_y_0_z_45.png,right,1,2.0481,MR,easy,12
024SSSV,right,images/base/14_b.png,images/combined/14_b_x_0_y_0_z_315.png,right,1,3.2878,MR,easy,13
024SSSV,left,images/base/16_a.png,images/combined/16_b_x_0_y_0_z_315.png,left,1,1.7016,MR,easy,14
024SSSV,right,images/base/6_b.png,images/combined/6_b_x_0_y_0_z_45.png,right,1,2.7999,MR,easy,15
024SSSV,right,images/base/9_b.png,images/combined/9_b_x_0_y_0_z_315.png,right,1,2.25,MR,easy,16
024SSSV,left,images/base/11_a.png,images/combined/11_b_x_315_y_0_z_270.png,right,0,3.0491,MR,medium,1
024SSSV,right,images/base/1_b.png,images/combined/1_b_x_45_y_0_z_90.png,left,0,5.2555,MR,medium,2
024SSSV,left,images/base/14_a.png,images/combined/14_b_x_45_y_0_z_270.png,left,1,2.6401,MR,medium,3
024SSSV,right,images/base/4_b.png,images/combined/4_b_x_45_y_0_z_90.png,right,1,1.7078,MR,medium,4
024SSSV,right,images/base/15_b.png,images/combined/15_b_x_45_y_0_z_270.png,right,1,3.3255,MR,medium,5
024SSSV,right,images/base/2_b.png,images/combined/2_b_x_315_y_0_z_90.png,right,1,0.886,MR,medium,6
024SSSV,left,images/base/5_a.png,images/combined/5_b_x_45_y_0_z_90.png,left,1,2.058,MR,medium,7
024SSSV,right,images/base/3_b.png,images/combined/3_b_x_45_y_0_z_90.png,right,1,4.9897,MR,medium,8
024SSSV,right,images/base/8_b.png,images/combined/8_b_x_45_y_0_z_270.png,left,0,4.6663,MR,medium,9
024SSSV,left,images/base/10_a.png,images/combined/10_b_x_45_y_0_z_270.png,left,1,10.2952,MR,medium,10
024SSSV,right,images/base/13_b.png,images/combined/13_b_x_45_y_0_z_270.png,right,1,2.8793,MR,medium,11
024SSSV,right,images/base/16_b.png,images/combined/16_b_x_315_y_0_z_90.png,right,1,1.7681,MR,medium,12
024SSSV,right,images/base/6_b.png,images/combined/6_b_x_315_y_0_z_90.png,right,1,1.183,MR,medium,13
024SSSV,right,images/base/7_b.png,images/combined/7_b_x_315_y_0_z_270.png,right,1,1.592,MR,medium,14
024SSSV,right,images/base/12_b.png,images/combined/12_b_x_45_y_0_z_270.png,right,1,2.0646,MR,medium,15
024SSSV,right,images/base/9_a.png,images/combined/9_a_x_315_y_0_z_270.png,left,0,1.1526,MR,medium,16
024SSSV,left,images/base/7_b.png,images/combined/7_a_x_270_y_0_z_90.png,left,1,6.8282,MR,hard,1
024SSSV,right,images/base/14_a.png,images/combined/14_a_x_90_y_0_z_270.png,right,1,3.8499,MR,hard,2
024SSSV,left,images/base/12_a.png,images/combined/12_b_x_90_y_0_z_90.png,right,0,3.6759,MR,hard,3
024SSSV,left,images/base/4_a.png,images/combined/4_b_x_90_y_0_z_90.png,right,0,1.5066,MR,hard,4
024SSSV,right,images/base/5_b.png,images/combined/5_b_x_270_y_0_z_270.png,right,1,1.8719,MR,hard,5
024SSSV,left,images/base/16_b.png,images/combined/16_a_x_90_y_0_z_90.png,right,0,1.3219,MR,hard,6
024SSSV,left,images/base/13_a.png,images/combined/13_b_x_90_y_0_z_90.png,right,0,1.0339,MR,hard,7
024SSSV,right,images/base/6_a.png,images/combined/6_a_x_90_y_0_z_90.png,right,1,3.7311,MR,hard,8
024SSSV,right,images/base/8_a.png,images/combined/8_a_x_90_y_0_z_270.png,right,1,6.8655,MR,hard,9
024SSSV,right,images/base/9_b.png,images/combined/9_b_x_90_y_0_z_90.png,left,0,8.0279,MR,hard,10
024SSSV,right,images/base/15_b.png,images/combined/15_b_x_270_y_0_z_90.png,left,0,1.0922,MR,hard,11
024SSSV,left,images/base/11_a.png,images/combined/11_b_x_270_y_0_z_90.png,right,0,0.817,MR,hard,12
024SSSV,left,images/base/1_b.png,images/combined/1_a_x_90_y_0_z_90.png,right,0,8.9461,MR,hard,13
024SSSV,left,images/base/2_a.png,images/combined/2_b_x_270_y_0_z_90.png,left,1,7.0937,MR,hard,14
024SSSV,left,images/base/3_b.png,images/combined/3_a_x_270_y_0_z_270.png,left,1,2.7763,MR,hard,15
024SSSV,right,images/base/10_b.png,images/combined/10_b_x_270_y_0_z_90.png,right,1,1.9242,MR,hard,16
026SSDM,right,images/base/6_b.png,images/combined/6_b_x_0_y_0_z_315.png,right,1,3.9668,MR,easy,1
026SSDM,right,images/base/2_a.png,images/combined/2_a_x_0_y_0_z_45.png,right,1,4.9408,MR,easy,2
026SSDM,right,images/base/16_b.png,images/combined/16_b_x_0_y_0_z_315.png,right,1,10.0371,MR,easy,3
026SSDM,right,images/base/13_b.png,images/combined/13_b_x_0_y_0_z_45.png,right,1,3.9064,MR,easy,4
026SSDM,left,images/base/12_a.png,images/combined/12_b_x_0_y_0_z_45.png,left,1,4.6631,MR,easy,5
026SSDM,left,images/base/10_b.png,images/combined/10_a_x_0_y_0_z_45.png,left,1,5.2193,MR,easy,6
026SSDM,right,images/base/9_b.png,images/combined/9_b_x_0_y_0_z_315.png,right,1,2.4191,MR,easy,7
026SSDM,left,images/base/15_a.png,images/combined/15_b_x_0_y_0_z_45.png,right,0,4.9981,MR,easy,8
026SSDM,left,images/base/11_b.png,images/combined/11_a_x_0_y_0_z_45.png,left,1,6.2353,MR,easy,9
026SSDM,right,images/base/3_b.png,images/combined/3_b_x_0_y_0_z_315.png,right,1,3.1178,MR,easy,10
026SSDM,left,images/base/4_a.png,images/combined/4_b_x_0_y_0_z_45.png,left,1,5.0861,MR,easy,11
026SSDM,left,images/base/14_b.png,images/combined/14_a_x_0_y_0_z_45.png,left,1,5.3529,MR,easy,12
026SSDM,left,images/base/1_b.png,images/combined/1_a_x_0_y_0_z_45.png,left,1,7.5353,MR,easy,13
026SSDM,right,images/base/8_b.png,images/combined/8_b_x_0_y_0_z_315.png,right,1,3.4168,MR,easy,14
026SSDM,right,images/base/7_b.png,images/combined/7_b_x_0_y_0_z_45.png,right,1,3.2693,MR,easy,15
026SSDM,right,images/base/5_b.png,images/combined/5_b_x_0_y_0_z_315.png,right,1,3.1696,MR,easy,16
026SSDM,right,images/base/3_b.png,images/combined/3_b_x_315_y_0_z_270.png,right,1,13.806,MR,medium,1
026SSDM,left,images/base/11_b.png,images/combined/11_a_x_315_y_0_z_270.png,left,1,5.597,MR,medium,2
026SSDM,right,images/base/12_b.png,images/combined/12_b_x_45_y_0_z_270.png,right,1,4.4838,MR,medium,3
026SSDM,left,images/base/6_a.png,images/combined/6_b_x_315_y_0_z_270.png,right,0,5.6677,MR,medium,4
026SSDM,right,images/base/15_b.png,images/combined/15_b_x_315_y_0_z_90.png,right,1,8.6868,MR,medium,5
026SSDM,left,images/base/8_a.png,images/combined/8_b_x_315_y_0_z_270.png,left,1,11.2336,MR,medium,6
026SSDM,left,images/base/9_b.png,images/combined/9_a_x_315_y_0_z_90.png,left,1,8.6859,MR,medium,7
026SSDM,left,images/base/4_a.png,images/combined/4_b_x_45_y_0_z_90.png,left,1,6.5843,MR,medium,8
026SSDM,left,images/base/14_a.png,images/combined/14_b_x_45_y_0_z_270.png,left,1,6.7526,MR,medium,9
026SSDM,left,images/base/5_b.png,images/combined/5_a_x_45_y_0_z_270.png,left,1,13.5352,MR,medium,10
026SSDM,right,images/base/16_b.png,images/combined/16_b_x_315_y_0_z_90.png,left,0,16.0944,MR,medium,11
026SSDM,left,images/base/7_b.png,images/combined/7_a_x_45_y_0_z_270.png,left,1,7.5543,MR,medium,12
026SSDM,right,images/base/2_b.png,images/combined/2_b_x_45_y_0_z_90.png,left,0,13.6182,MR,medium,13
026SSDM,left,images/base/1_b.png,images/combined/1_a_x_45_y_0_z_270.png,left,1,30.8155,MR,medium,14
026SSDM,right,images/base/13_b.png,images/combined/13_b_x_315_y_0_z_270.png,left,0,10.8733,MR,medium,15
026SSDM,right,images/base/10_a.png,images/combined/10_a_x_315_y_0_z_90.png,right,1,16.7098,MR,medium,16
026SSDM,left,images/base/4_b.png,images/combined/4_a_x_90_y_0_z_270.png,left,1,4.3724,MR,hard,1
026SSDM,right,images/base/11_a.png,images/combined/11_a_x_90_y_0_z_270.png,right,1,4.1201,MR,hard,2
026SSDM,left,images/base/10_a.png,images/combined/10_b_x_90_y_0_z_270.png,left,1,4.4323,MR,hard,3
026SSDM,right,images/base/2_a.png,images/combined/2_a_x_90_y_0_z_90.png,right,1,7.2708,MR,hard,4
026SSDM,right,images/base/6_b.png,images/combined/6_b_x_90_y_0_z_90.png,right,1,9.1894,MR,hard,5
026SSDM,right,images/base/5_b.png,images/combined/5_b_x_90_y_0_z_270.png,right,1,5.9663,MR,hard,6
026SSDM,right,images/base/8_a.png,images/combined/8_a_x_270_y_0_z_270.png,right,1,9.316,MR,hard,7
026SSDM,left,images/base/3_a.png,images/combined/3_b_x_270_y_0_z_270.png,left,1,18.387,MR,hard,8
026SSDM,right,images/base/16_a.png,images/combined/16_a_x_90_y_0_z_90.png,right,1,5.9261,MR,hard,9
026SSDM,right,images/base/14_a.png,images/combined/14_a_x_90_y_0_z_270.png,right,1,8.6518,MR,hard,10
026SSDM,left,images/base/1_a.png,images/combined/1_b_x_90_y_0_z_270.png,left,1,7.3174,MR,hard,11
026SSDM,right,images/base/12_b.png,images/combined/12_b_x_90_y_0_z_270.png,right,1,5.233,MR,hard,12
026SSDM,left,images/base/13_a.png,images/combined/13_b_x_270_y_0_z_270.png,left,1,4.0212,MR,hard,13
026SSDM,left,images/base/7_a.png,images/combined/7_b_x_90_y_0_z_90.png,left,1,9.7026,MR,hard,14
026SSDM,right,images/base/9_b.png,images/combined/9_b_x_270_y_0_z_270.png,left,0,9.4367,MR,hard,15
026SSDM,right,images/base/15_a.png,images/combined/15_a_x_270_y_0_z_90.png,right,1,8.4848,MR,hard,16
027ARDB,right,images/base/5_b.png,images/combined/5_b_x_0_y_0_z_315.png,right,1,7.8885,MR,easy,1
027ARDB,left,images/base/6_a.png,images/combined/6_b_x_0_y_0_z_315.png,left,1,7.503,MR,easy,2
027ARDB,right,images/base/9_a.png,images/combined/9_a_x_0_y_0_z_45.png,right,1,12.3451,MR,easy,3
027ARDB,right,images/base/12_b.png,images/combined/12_b_x_0_y_0_z_315.png,right,1,8.0124,MR,easy,4
027ARDB,left,images/base/3_a.png,images/combined/3_b_x_0_y_0_z_45.png,right,0,10.6484,MR,easy,5
027ARDB,right,images/base/15_a.png,images/combined/15_a_x_0_y_0_z_45.png,right,1,21.659,MR,easy,6
027ARDB,left,images/base/7_a.png,images/combined/7_b_x_0_y_0_z_45.png,right,0,10.6179,MR,easy,7
027ARDB,right,images/base/8_a.png,images/combined/8_a_x_0_y_0_z_45.png,right,1,9.7917,MR,easy,8
027ARDB,left,images/base/2_a.png,images/combined/2_b_x_0_y_0_z_315.png,left,1,9.165,MR,easy,9
027ARDB,left,images/base/13_b.png,images/combined/13_a_x_0_y_0_z_45.png,left,1,16.4767,MR,easy,10
027ARDB,left,images/base/4_b.png,images/combined/4_a_x_0_y_0_z_315.png,left,1,4.9249,MR,easy,11
027ARDB,left,images/base/16_a.png,images/combined/16_b_x_0_y_0_z_45.png,left,1,9.856,MR,easy,12
027ARDB,right,images/base/11_b.png,images/combined/11_b_x_0_y_0_z_315.png,right,1,12.6777,MR,easy,13
027ARDB,right,images/base/14_a.png,images/combined/14_a_x_0_y_0_z_45.png,right,1,9.6121,MR,easy,14
027ARDB,right,images/base/1_a.png,images/combined/1_a_x_0_y_0_z_45.png,right,1,7.6195,MR,easy,15
027ARDB,right,images/base/10_b.png,images/combined/10_b_x_0_y_0_z_45.png,right,1,7.4135,MR,easy,16
027ARDB,right,images/base/16_a.png,images/combined/16_a_x_315_y_0_z_90.png,left,0,29.1529,MR,medium,1
027ARDB,left,images/base/12_a.png,images/combined/12_b_x_315_y_0_z_90.png,left,1,13.5497,MR,medium,2
027ARDB,left,images/base/3_b.png,images/combined/3_a_x_315_y_0_z_270.png,left,1,5.8536,MR,medium,3
027ARDB,left,images/base/11_a.png,images/combined/11_b_x_45_y_0_z_90.png,left,1,21.3965,MR,medium,4
027ARDB,right,images/base/8_b.png,images/combined/8_b_x_45_y_0_z_270.png,left,0,8.2376,MR,medium,5
027ARDB,right,images/base/7_a.png,images/combined/7_a_x_45_y_0_z_270.png,left,0,9.4326,MR,medium,6
027ARDB,left,images/base/6_b.png,images/combined/6_a_x_315_y_0_z_270.png,left,1,5.7806,MR,medium,7
027ARDB,left,images/base/9_b.png,images/combined/9_a_x_45_y_0_z_90.png,left,1,13.527,MR,medium,8
027ARDB,right,images/base/14_b.png,images/combined/14_b_x_315_y_0_z_270.png,left,0,4.2901,MR,medium,9
027ARDB,right,images/base/5_b.png,images/combined/5_b_x_315_y_0_z_270.png,left,0,3.618,MR,medium,10
027ARDB,right,images/base/15_a.png,images/combined/15_a_x_45_y_0_z_270.png,left,0,2.9247,MR,medium,11
027ARDB,right,images/base/10_b.png,images/combined/10_b_x_315_y_0_z_90.png,left,0,6.0609,MR,medium,12
027ARDB,left,images/base/13_b.png,images/combined/13_a_x_315_y_0_z_270.png,left,1,2.2808,MR,medium,13
027ARDB,right,images/base/2_a.png,images/combined/2_a_x_45_y_0_z_270.png,left,0,4.7585,MR,medium,14
027ARDB,right,images/base/1_b.png,images/combined/1_b_x_45_y_0_z_90.png,left,0,3.8154,MR,medium,15
027ARDB,right,images/base/4_b.png,images/combined/4_b_x_45_y_0_z_90.png,left,0,2.4593,MR,medium,16
027ARDB,right,images/base/8_b.png,images/combined/8_b_x_270_y_0_z_90.png,right,1,11.822,MR,hard,1
027ARDB,left,images/base/10_a.png,images/combined/10_b_x_90_y_0_z_270.png,right,0,14.7222,MR,hard,2
027ARDB,left,images/base/15_a.png,images/combined/15_b_x_270_y_0_z_90.png,left,1,6.8485,MR,hard,3
027ARDB,left,images/base/7_b.png,images/combined/7_a_x_90_y_0_z_270.png,right,0,11.4165,MR,hard,4
027ARDB,right,images/base/11_a.png,images/combined/11_a_x_270_y_0_z_90.png,left,0,31.3096,MR,hard,5
027ARDB,left,images/base/16_a.png,images/combined/16_b_x_270_y_0_z_90.png,right,0,14.7319,MR,hard,6
027ARDB,left,images/base/4_b.png,images/combined/4_a_x_270_y_0_z_270.png,left,1,8.3349,MR,hard,7
027ARDB,left,images/base/14_b.png,images/combined/14_a_x_270_y_0_z_270.png,left,1,33.1723,MR,hard,8
027ARDB,left,images/base/13_a.png,images/combined/13_b_x_90_y_0_z_270.png,left,1,15.5879,MR,hard,9
027ARDB,right,images/base/2_b.png,images/combined/2_b_x_90_y_0_z_90.png,right,1,29.8264,MR,hard,10
027ARDB,right,images/base/9_a.png,images/combined/9_a_x_90_y_0_z_270.png,left,0,12.9407,MR,hard,11
027ARDB,right,images/base/12_a.png,images/combined/12_a_x_90_y_0_z_270.png,left,0,17.5729,MR,hard,12
027ARDB,right,images/base/6_b.png,images/combined/6_b_x_270_y_0_z_270.png,left,0,8.2455,MR,hard,13
027ARDB,left,images/base/1_b.png,images/combined/1_a_x_90_y_0_z_270.png,left,1,6.0771,MR,hard,14
027ARDB,left,images/base/5_a.png,images/combined/5_b_x_90_y_0_z_90.png,left,1,6.5291,MR,hard,15
027ARDB,left,images/base/3_a.png,images/combined/3_b_x_270_y_0_z_270.png,left,1,6.8534,MR,hard,16
029SSDL,left,images/base/1_a.png,images/combined/1_b_x_0_y_0_z_45.png,left,1,2.4064,MR,easy,1
029SSDL,right,images/base/15_b.png,images/combined/15_b_x_0_y_0_z_45.png,right,1,3.8393,MR,easy,2
029SSDL,right,images/base/16_a.png,images/combined/16_a_x_0_y_0_z_45.png,right,1,2.3928,MR,easy,3
029SSDL,right,images/base/13_a.png,images/combined/13_a_x_0_y_0_z_45.png,right,1,2.7463,MR,easy,4
029SSDL,right,images/base/5_b.png,images/combined/5_b_x_0_y_0_z_45.png,right,1,2.2771,MR,easy,5
029SSDL,left,images/base/11_b.png,images/combined/11_a_x_0_y_0_z_45.png,right,0,8.8653,MR,easy,6
029SSDL,right,images/base/7_b.png,images/combined/7_b_x_0_y_0_z_315.png,left,0,2.3475,MR,easy,7
029SSDL,left,images/base/6_a.png,images/combined/6_b_x_0_y_0_z_315.png,left,1,2.993,MR,easy,8
029SSDL,right,images/base/3_a.png,images/combined/3_a_x_0_y_0_z_315.png,right,1,4.0077,MR,easy,9
029SSDL,left,images/base/10_a.png,images/combined/10_b_x_0_y_0_z_315.png,left,1,11.7941,MR,easy,10
029SSDL,right,images/base/9_a.png,images/combined/9_a_x_0_y_0_z_315.png,right,1,1.9619,MR,easy,11
029SSDL,left,images/base/12_a.png,images/combined/12_b_x_0_y_0_z_45.png,left,1,6.3266,MR,easy,12
029SSDL,right,images/base/4_a.png,images/combined/4_a_x_0_y_0_z_45.png,right,1,1.8079,MR,easy,13
029SSDL,right,images/base/14_a.png,images/combined/14_a_x_0_y_0_z_315.png,right,1,1.918,MR,easy,14
029SSDL,left,images/base/8_a.png,images/combined/8_b_x_0_y_0_z_45.png,left,1,2.695,MR,easy,15
029SSDL,right,images/base/2_a.png,images/combined/2_a_x_0_y_0_z_315.png,right,1,1.8954,MR,easy,16
029SSDL,right,images/base/15_a.png,images/combined/15_a_x_315_y_0_z_270.png,right,1,14.1178,MR,medium,1
029SSDL,right,images/base/5_b.png,images/combined/5_b_x_315_y_0_z_270.png,right,1,3.0134,MR,medium,2
029SSDL,left,images/base/12_b.png,images/combined/12_a_x_315_y_0_z_90.png,left,1,4.8464,MR,medium,3
029SSDL,right,images/base/3_a.png,images/combined/3_a_x_45_y_0_z_270.png,right,1,3.7539,MR,medium,4
029SSDL,right,images/base/9_a.png,images/combined/9_a_x_45_y_0_z_90.png,right,1,4.0642,MR,medium,5
029SSDL,right,images/base/11_b.png,images/combined/11_b_x_315_y_0_z_90.png,left,0,7.3829,MR,medium,6
029SSDL,right,images/base/14_a.png,images/combined/14_a_x_315_y_0_z_270.png,right,1,5.2166,MR,medium,7
029SSDL,left,images/base/16_a.png,images/combined/16_b_x_45_y_0_z_90.png,left,1,14.5388,MR,medium,8
029SSDL,left,images/base/7_b.png,images/combined/7_a_x_45_y_0_z_270.png,left,1,6.9775,MR,medium,9
029SSDL,right,images/base/6_a.png,images/combined/6_a_x_45_y_0_z_90.png,right,1,2.7945,MR,medium,10
029SSDL,left,images/base/2_a.png,images/combined/2_b_x_315_y_0_z_270.png,left,1,3.0994,MR,medium,11
029SSDL,left,images/base/8_a.png,images/combined/8_b_x_315_y_0_z_90.png,left,1,2.5703,MR,medium,12
029SSDL,left,images/base/13_b.png,images/combined/13_a_x_315_y_0_z_90.png,left,1,3.2827,MR,medium,13
029SSDL,left,images/base/4_b.png,images/combined/4_a_x_315_y_0_z_270.png,left,1,5.3762,MR,medium,14
029SSDL,left,images/base/10_a.png,images/combined/10_b_x_45_y_0_z_90.png,left,1,9.0493,MR,medium,15
029SSDL,left,images/base/1_b.png,images/combined/1_a_x_315_y_0_z_270.png,left,1,2.6513,MR,medium,16
029SSDL,left,images/base/9_b.png,images/combined/9_a_x_270_y_0_z_270.png,left,1,8.28,MR,hard,1
029SSDL,right,images/base/4_b.png,images/combined/4_b_x_270_y_0_z_90.png,right,1,11.9716,MR,hard,2
029SSDL,right,images/base/10_b.png,images/combined/10_b_x_270_y_0_z_90.png,right,1,3.0855,MR,hard,3
029SSDL,left,images/base/11_a.png,images/combined/11_b_x_90_y_0_z_90.png,right,0,17.099,MR,hard,4
029SSDL,left,images/base/14_b.png,images/combined/14_a_x_90_y_0_z_90.png,left,1,5.5133,MR,hard,5
029SSDL,right,images/base/6_a.png,images/combined/6_a_x_270_y_0_z_90.png,right,1,3.2344,MR,hard,6
029SSDL,right,images/base/15_a.png,images/combined/15_a_x_270_y_0_z_270.png,right,1,5.3954,MR,hard,7
029SSDL,left,images/base/5_b.png,images/combined/5_a_x_270_y_0_z_90.png,left,1,3.7258,MR,hard,8
029SSDL,right,images/base/7_a.png,images/combined/7_a_x_270_y_0_z_270.png,right,1,3.9938,MR,hard,9
029SSDL,right,images/base/1_b.png,images/combined/1_b_x_270_y_0_z_90.png,right,1,11.6402,MR,hard,10
029SSDL,right,images/base/16_a.png,images/combined/16_a_x_270_y_0_z_270.png,right,1,4.2088,MR,hard,11
029SSDL,right,images/base/12_b.png,images/combined/12_b_x_270_y_0_z_90.png,right,1,7.7526,MR,hard,12
029SSDL,left,images/base/13_b.png,images/combined/13_a_x_90_y_0_z_270.png,left,1,2.5677,MR,hard,13
029SSDL,right,images/base/8_b.png,images/combined/8_b_x_270_y_0_z_90.png,left,0,5.5079,MR,hard,14
029SSDL,right,images/base/2_a.png,images/combined/2_a_x_270_y_0_z_90.png,right,1,3.8376,MR,hard,15
029SSDL,left,images/base/3_b.png,images/combined/3_a_x_270_y_0_z_270.png,left,1,13.5678,MR,hard,16
031SSAS,right,images/base/3_a.png,images/combined/3_a_x_0_y_0_z_315.png,right,1,1.7215,MR,easy,1
031SSAS,right,images/base/4_a.png,images/combined/4_a_x_0_y_0_z_315.png,right,1,1.5285,MR,easy,2
031SSAS,right,images/base/14_b.png,images/combined/14_b_x_0_y_0_z_315.png,right,1,1.0653,MR,easy,3
031SSAS,right,images/base/13_a.png,images/combined/13_a_x_0_y_0_z_315.png,right,1,0.95,MR,easy,4
031SSAS,right,images/base/6_b.png,images/combined/6_b_x_0_y_0_z_315.png,right,1,1.5168,MR,easy,5
031SSAS,left,images/base/1_a.png,images/combined/1_b_x_0_y_0_z_315.png,left,1,1.3427,MR,easy,6
031SSAS,right,images/base/15_a.png,images/combined/15_a_x_0_y_0_z_45.png,left,0,1.6671,MR,easy,7
031SSAS,left,images/base/5_b.png,images/combined/5_a_x_0_y_0_z_315.png,left,1,1.2355,MR,easy,8
031SSAS,right,images/base/7_b.png,images/combined/7_b_x_0_y_0_z_45.png,right,1,1.1051,MR,easy,9
