id,target_present,key,is_correct,rt,task,level,trial
001SSMS,0,left,1,1.157,ST,easy,1
001SSMS,1,right,1,1.129,ST,easy,2
001SSMS,0,left,1,0.948,ST,easy,3
001SSMS,1,right,1,1.069,ST,easy,4
001SSMS,0,left,1,0.818,ST,easy,5
001SSMS,0,left,1,0.803,ST,easy,6
001SSMS,1,right,1,0.755,ST,easy,7
001SSMS,1,right,1,0.996,ST,easy,8
001SSMS,1,right,1,0.948,ST,easy,9
001SSMS,1,right,1,1.149,ST,easy,10
001SSMS,0,left,1,1.349,ST,easy,11
001SSMS,0,left,1,0.97,ST,easy,12
001SSMS,0,left,1,0.862,ST,easy,13
001SSMS,0,left,1,0.786,ST,easy,14
001SSMS,1,right,1,0.921,ST,easy,15
001SSMS,1,right,1,1.313,ST,easy,16
001SSMS,1,right,1,1.612,ST,hard,1
001SSMS,0,left,1,0.946,ST,hard,2
001SSMS,1,left,0,1.273,ST,hard,3
001SSMS,1,left,0,1.067,ST,hard,4
001SSMS,0,right,0,1.13,ST,hard,5
001SSMS,1,left,0,0.98,ST,hard,6
001SSMS,0,left,1,1.203,ST,hard,7
001SSMS,0,left,1,1.037,ST,hard,8
001SSMS,1,right,1,1.589,ST,hard,9
001SSMS,1,left,0,1.344,ST,hard,10
001SSMS,1,right,1,2.513,ST,hard,11
001SSMS,0,left,1,1.413,ST,hard,12
001SSMS,0,right,0,4.121,ST,hard,13
001SSMS,0,right,0,1.7,ST,hard,14
001SSMS,1,right,1,0.869,ST,hard,15
001SSMS,1,right,1,3.646,ST,hard,16
001SSMS,0,left,1,0.681,ST,medium,1
001SSMS,1,right,1,0.786,ST,medium,2
001SSMS,1,right,1,0.837,ST,medium,3
001SSMS,0,right,0,0.869,ST,medium,4
001SSMS,0,left,1,2.27,ST,medium,5
001SSMS,1,right,1,0.705,ST,medium,6
001SSMS,0,left,1,0.93,ST,medium,7
001SSMS,0,left,1,1.82,ST,medium,8
001SSMS,0,right,0,1.919,ST,medium,9
001SSMS,0,left,1,2.086,ST,medium,10
001SSMS,0,left,1,1.698,ST,medium,11
001SSMS,0,right,0,1.279,ST,medium,12
001SSMS,1,right,1,0.848,ST,medium,13
001SSMS,0,right,0,1.136,ST,medium,14
001SSMS,0,left,1,1.012,ST,medium,15
001SSMS,1,left,0,1.013,ST,medium,16
003SSKS,0,left,1,1.295,ST,easy,1
003SSKS,1,right,1,1.04,ST,easy,2
003SSKS,0,left,1,1.03,ST,easy,3
003SSKS,1,right,1,1.419,ST,easy,4
003SSKS,0,left,1,1.007,ST,easy,5
003SSKS,1,right,1,1.056,ST,easy,6
003SSKS,1,left,0,1.014,ST,easy,7
003SSKS,1,right,1,2.107,ST,easy,8
003SSKS,0,left,1,0.814,ST,easy,9
003SSKS,0,left,1,0.88,ST,easy,10
003SSKS,1,right,1,0.864,ST,easy,11
003SSKS,0,left,1,1.688,ST,easy,12
003SSKS,1,right,1,0.884,ST,easy,13
003SSKS,1,right,1,1,ST,easy,14
003SSKS,1,right,1,0.864,ST,easy,15
003SSKS,0,left,1,1.684,ST,easy,16
003SSKS,1,left,0,1.729,ST,hard,1
003SSKS,0,left,1,1.382,ST,hard,2
003SSKS,1,left,0,1.131,ST,hard,3
003SSKS,1,right,1,2.626,ST,hard,4
003SSKS,0,left,1,1.035,ST,hard,5
003SSKS,0,left,1,3.317,ST,hard,6
003SSKS,0,left,1,1.33,ST,hard,7
003SSKS,0,left,1,1.64,ST,hard,8
003SSKS,0,left,1,1.382,ST,hard,9
003SSKS,1,right,1,0.946,ST,hard,10
003SSKS,0,left,1,0.914,ST,hard,11
003SSKS,1,left,0,1.467,ST,hard,12
003SSKS,0,left,1,0.88,ST,hard,13
003SSKS,0,left,1,0.864,ST,hard,14
003SSKS,0,left,1,1.396,ST,hard,15
003SSKS,0,left,1,0.897,ST,hard,16
003SSKS,0,right,0,1.228,ST,medium,1
003SSKS,0,left,1,0.784,ST,medium,2
003SSKS,1,right,1,1.972,ST,medium,3
003SSKS,0,left,1,1.214,ST,medium,4
003SSKS,0,left,1,1.022,ST,medium,5
003SSKS,0,left,1,1.584,ST,medium,6
003SSKS,0,left,1,2.585,ST,medium,7
003SSKS,1,right,1,1.216,ST,medium,8
003SSKS,0,right,0,1.118,ST,medium,9
003SSKS,1,left,0,0.988,ST,medium,10
003SSKS,0,left,1,1.083,ST,medium,11
003SSKS,0,left,1,0.864,ST,medium,12
003SSKS,0,left,1,1,ST,medium,13
003SSKS,1,right,1,0.981,ST,medium,14
003SSKS,1,right,1,1.034,ST,medium,15
003SSKS,0,left,1,0.899,ST,medium,16
004SSDR,1,right,1,1.0323,ST,easy,1
004SSDR,0,left,1,0.7383,ST,easy,2
004SSDR,0,left,1,0.73740000000000006,ST,easy,3
004SSDR,0,left,1,0.76,ST,easy,4
004SSDR,1,right,1,1.1885,ST,easy,5
004SSDR,1,right,1,0.9623,ST,easy,6
004SSDR,0,left,1,0.8883,ST,easy,7
004SSDR,1,right,1,0.8538,ST,easy,8
004SSDR,1,right,1,0.7096,ST,easy,9
004SSDR,0,left,1,0.7172,ST,easy,10
004SSDR,1,right,1,0.8863,ST,easy,11
004SSDR,1,right,1,0.7546,ST,easy,12
004SSDR,0,left,1,0.8224,ST,easy,13
004SSDR,0,left,1,0.6017,ST,easy,14
004SSDR,1,right,1,0.8874,ST,easy,15
004SSDR,1,right,1,0.8535,ST,easy,16
004SSDR,0,left,1,1.1835,ST,hard,1
004SSDR,0,left,1,0.8088,ST,hard,2
004SSDR,1,left,0,1.0529,ST,hard,3
004SSDR,0,left,1,1.8889,ST,hard,4
004SSDR,0,left,1,1.4019,ST,hard,5
004SSDR,0,left,1,0.7065,ST,hard,6
004SSDR,0,right,0,1.1529,ST,hard,7
004SSDR,0,left,1,0.837,ST,hard,8
004SSDR,1,right,1,0.9203,ST,hard,9
004SSDR,1,right,1,0.7527,ST,hard,10
004SSDR,0,left,1,0.8044,ST,hard,11
004SSDR,0,left,1,0.7361,ST,hard,12
004SSDR,1,left,0,0.8544,ST,hard,13
004SSDR,1,left,0,1.3759,ST,hard,14
004SSDR,1,right,1,1.0387,ST,hard,15
004SSDR,0,left,1,1.4725,ST,hard,16
004SSDR,1,right,1,0.9973,ST,medium,1
004SSDR,0,left,1,1.0618,ST,medium,2
004SSDR,0,left,1,0.7359,ST,medium,3
004SSDR,0,left,1,0.8866,ST,medium,4
004SSDR,0,left,1,0.6592,ST,medium,5
004SSDR,0,left,1,0.687,ST,medium,6
004SSDR,0,left,1,0.6861,ST,medium,7
004SSDR,1,right,1,0.6563,ST,medium,8
004SSDR,1,right,1,0.5708,ST,medium,9
004SSDR,0,left,1,0.7675,ST,medium,10
004SSDR,1,left,0,1.4373,ST,medium,11
004SSDR,1,right,1,0.73740000000000006,ST,medium,12
004SSDR,0,left,1,0.704,ST,medium,13
004SSDR,0,left,1,0.6701,ST,medium,14
004SSDR,0,left,1,1.2735,ST,medium,15
004SSDR,1,right,1,1.7534,ST,medium,16
005SSDR,1,right,1,1.3717,ST,easy,1
005SSDR,0,left,1,0.8761,ST,easy,2
005SSDR,0,left,1,0.8007,ST,easy,3
005SSDR,0,left,1,0.8091,ST,easy,4
005SSDR,1,right,1,0.7933,ST,easy,5
005SSDR,0,left,1,0.7848,ST,easy,6
005SSDR,1,right,1,0.6702,ST,easy,7
005SSDR,1,right,1,0.8617,ST,easy,8
005SSDR,0,left,1,0.5991,ST,easy,9
005SSDR,1,right,1,0.8505,ST,easy,10
005SSDR,0,left,1,0.7045,ST,easy,11
005SSDR,0,left,1,0.6663,ST,easy,12
005SSDR,1,right,1,0.7583,ST,easy,13
005SSDR,1,right,1,0.823,ST,easy,14
005SSDR,1,right,1,0.6742,ST,easy,15
005SSDR,1,right,1,0.616,ST,easy,16
005SSDR,1,right,1,1.3855,ST,hard,1
005SSDR,1,left,0,1.7484,ST,hard,2
005SSDR,1,left,0,1.0923,ST,hard,3
005SSDR,0,right,0,1.5542,ST,hard,4
005SSDR,0,left,1,1.0013,ST,hard,5
005SSDR,1,right,1,0.8679,ST,hard,6
005SSDR,1,right,1,0.9537,ST,hard,7
005SSDR,1,right,1,1.9745,ST,hard,8
005SSDR,1,left,0,2.191,ST,hard,9
005SSDR,0,left,1,0.9079,ST,hard,10
005SSDR,1,right,1,0.7005,ST,hard,11
005SSDR,0,left,1,1.0824,ST,hard,12
005SSDR,1,right,1,0.6862,ST,hard,13
005SSDR,0,left,1,1.7025,ST,hard,14
005SSDR,0,left,1,0.7403,ST,hard,15
005SSDR,0,left,1,0.7243,ST,hard,16
005SSDR,0,left,1,4.5782,ST,medium,1
005SSDR,1,right,1,3.0618,ST,medium,2
005SSDR,0,left,1,1.4592,ST,medium,3
005SSDR,1,right,1,1.7149,ST,medium,4
005SSDR,0,left,1,2.1006,ST,medium,5
005SSDR,0,left,1,1.5516,ST,medium,6
005SSDR,0,left,1,1.9544,ST,medium,7
005SSDR,0,left,1,1.5799,ST,medium,8
005SSDR,1,right,1,2.3233,ST,medium,9
005SSDR,1,right,1,1.3667,ST,medium,10
005SSDR,0,left,1,1.3435,ST,medium,11
005SSDR,1,right,1,1.6571,ST,medium,12
005SSDR,0,left,1,1.1841,ST,medium,13
005SSDR,1,right,1,1.2842,ST,medium,14
005SSDR,1,left,0,1.5835,ST,medium,15
005SSDR,0,left,1,12.3985,ST,medium,16
006SSEE,0,left,1,1.1098,ST,easy,1
006SSEE,1,right,1,0.9088,ST,easy,2
006SSEE,0,left,1,0.6296,ST,easy,3
006SSEE,1,right,1,1.1169,ST,easy,4
006SSEE,0,left,1,0.6443,ST,easy,5
006SSEE,1,right,1,0.5898,ST,easy,6
006SSEE,1,right,1,0.6862,ST,easy,7
006SSEE,1,right,1,0.9672,ST,easy,8
006SSEE,1,right,1,0.4921,ST,easy,9
006SSEE,1,right,1,0.5901,ST,easy,10
006SSEE,1,right,1,0.609,ST,easy,11
006SSEE,1,right,1,0.5909,ST,easy,12
006SSEE,0,left,1,0.7665,ST,easy,13
006SSEE,1,right,1,0.7102,ST,easy,14
006SSEE,0,left,1,0.7342,ST,easy,15
006SSEE,0,left,1,0.8084,ST,easy,16
006SSEE,0,left,1,0.6663,ST,hard,1
006SSEE,0,left,1,1.0984,ST,hard,2
006SSEE,0,left,1,0.7104,ST,hard,3
006SSEE,1,right,1,1.3263,ST,hard,4
006SSEE,0,left,1,0.8004,ST,hard,5
006SSEE,1,right,1,1.2474,ST,hard,6
006SSEE,0,right,0,0.7609,ST,hard,7
006SSEE,1,left,0,0.7095,ST,hard,8
006SSEE,1,right,1,0.4675,ST,hard,9
006SSEE,1,right,1,0.5941,ST,hard,10
006SSEE,0,left,1,0.801,ST,hard,11
006SSEE,1,right,1,0.6439,ST,hard,12
006SSEE,0,left,1,0.655,ST,hard,13
006SSEE,0,right,0,1.0019,ST,hard,14
006SSEE,1,right,1,0.5365,ST,hard,15
006SSEE,1,right,1,0.6316,ST,hard,16
006SSEE,0,left,1,0.7993,ST,medium,1
006SSEE,0,right,0,1.436,ST,medium,2
006SSEE,0,left,1,0.6848,ST,medium,3
006SSEE,0,left,1,0.5495,ST,medium,4
006SSEE,0,left,1,0.8684,ST,medium,5
006SSEE,1,left,0,0.6766,ST,medium,6
006SSEE,0,left,1,0.6064,ST,medium,7
006SSEE,1,left,0,0.6371,ST,medium,8
006SSEE,1,right,1,0.5811,ST,medium,9
006SSEE,1,right,1,2.5981,ST,medium,10
006SSEE,1,left,0,1.0303,ST,medium,11
006SSEE,1,right,1,1.8881,ST,medium,12
006SSEE,0,left,1,0.8486,ST,medium,13
006SSEE,0,left,1,0.8542,ST,medium,14
006SSEE,0,left,1,0.5719,ST,medium,15
006SSEE,1,right,1,0.7176,ST,medium,16
007SSJM,0,left,1,0.895,ST,easy,1
007SSJM,1,right,1,1.266,ST,easy,2
007SSJM,0,left,1,0.882,ST,easy,3
007SSJM,0,left,1,1.264,ST,easy,4
007SSJM,1,right,1,1.1,ST,easy,5
007SSJM,0,left,1,0.62,ST,easy,6
007SSJM,1,right,1,0.87,ST,easy,7
007SSJM,0,left,1,0.833,ST,easy,8
007SSJM,1,right,1,0.915,ST,easy,9
007SSJM,1,right,1,1.181,ST,easy,10
007SSJM,1,right,1,1.231,ST,easy,11
007SSJM,1,left,0,1.749,ST,easy,12
007SSJM,1,right,1,0.848,ST,easy,13
007SSJM,0,left,1,1.722,ST,easy,14
007SSJM,0,left,1,0.852,ST,easy,15
007SSJM,1,right,1,0.83,ST,easy,16
007SSJM,0,right,0,1.837,ST,hard,1
007SSJM,1,left,0,1.102,ST,hard,2
007SSJM,1,left,0,1.101,ST,hard,3
007SSJM,1,right,1,1.066,ST,hard,4
007SSJM,1,right,1,1.449,ST,hard,5
007SSJM,0,left,1,0.965,ST,hard,6
007SSJM,0,left,1,1.141,ST,hard,7
007SSJM,1,right,1,1.45,ST,hard,8
007SSJM,1,left,0,0.265,ST,hard,9
007SSJM,0,left,1,3.535,ST,hard,10
007SSJM,0,left,1,1.181,ST,hard,11
007SSJM,0,right,0,1.386,ST,hard,12
007SSJM,0,left,1,1.067,ST,hard,13
007SSJM,0,right,0,1.116,ST,hard,14
007SSJM,0,left,1,1.09,ST,hard,15
007SSJM,0,left,1,1.212,ST,hard,16
007SSJM,0,left,1,1.806,ST,medium,1
007SSJM,1,right,1,1.235,ST,medium,2
007SSJM,1,right,1,2.26,ST,medium,3
007SSJM,0,left,1,1.607,ST,medium,4
007SSJM,0,left,1,2.292,ST,medium,5
007SSJM,0,left,1,1.758,ST,medium,6
007SSJM,0,left,1,1.299,ST,medium,7
007SSJM,0,left,1,1.316,ST,medium,8
007SSJM,1,left,0,1.203,ST,medium,9
007SSJM,0,right,0,1.435,ST,medium,10
007SSJM,1,right,1,1.18,ST,medium,11
007SSJM,0,left,1,1.406,ST,medium,12
007SSJM,1,left,0,0.964,ST,medium,13
007SSJM,1,left,0,1.141,ST,medium,14
007SSJM,1,left,0,0.95,ST,medium,15
007SSJM,0,left,1,2.047,ST,medium,16
008SSEP,0,left,1,1.1415,ST,easy,1
008SSEP,0,left,1,1.1284,ST,easy,2
008SSEP,0,left,1,0.7173,ST,easy,3
008SSEP,0,left,1,0.8861,ST,easy,4
008SSEP,1,right,1,0.9373,ST,easy,5
008SSEP,1,right,1,0.707,ST,easy,6
008SSEP,0,left,1,0.8081,ST,easy,7
008SSEP,0,left,1,0.8349,ST,easy,8
008SSEP,1,right,1,0.91,ST,easy,9
008SSEP,0,left,1,0.7681,ST,easy,10
008SSEP,1,right,1,0.7432,ST,easy,11
008SSEP,1,right,1,0.7006,ST,easy,12
008SSEP,0,left,1,0.6939,ST,easy,13
008SSEP,0,left,1,1.0172,ST,easy,14
008SSEP,0,left,1,0.6179,ST,easy,15
008SSEP,1,right,1,0.7009,ST,easy,16
008SSEP,1,right,1,0.7858,ST,hard,1
008SSEP,0,left,1,0.7504,ST,hard,2
008SSEP,1,left,0,0.7672,ST,hard,3
008SSEP,1,left,0,0.9177,ST,hard,4
008SSEP,0,left,1,0.6134,ST,hard,5
008SSEP,0,left,1,0.8015,ST,hard,6
008SSEP,0,left,1,0.6883,ST,hard,7
008SSEP,1,left,0,1.0333,ST,hard,8
008SSEP,0,left,1,0.7539,ST,hard,9
008SSEP,1,right,1,0.7192,ST,hard,10
008SSEP,1,left,0,0.6393,ST,hard,11
008SSEP,1,left,0,0.7658,ST,hard,12
008SSEP,0,left,1,0.5727,ST,hard,13
008SSEP,0,left,1,0.5829,ST,hard,14
008SSEP,1,right,1,0.607,ST,hard,15
008SSEP,0,left,1,0.792,ST,hard,16
008SSEP,1,right,1,1.2251,ST,medium,1
008SSEP,0,left,1,2.1159,ST,medium,2
008SSEP,1,right,1,0.7719,ST,medium,3
008SSEP,0,left,1,0.8676,ST,medium,4
008SSEP,0,left,1,1.2051,ST,medium,5
008SSEP,0,left,1,1.0374,ST,medium,6
008SSEP,0,left,1,1.227,ST,medium,7
008SSEP,1,left,0,0.8505,ST,medium,8
008SSEP,0,left,1,1.0778,ST,medium,9
008SSEP,0,left,1,0.8995,ST,medium,10
008SSEP,0,left,1,0.6509,ST,medium,11
008SSEP,1,right,1,0.917,ST,medium,12
008SSEP,1,left,0,1.0411,ST,medium,13
008SSEP,1,right,1,0.9383,ST,medium,14
008SSEP,1,right,1,0.7669,ST,medium,15
008SSEP,0,left,1,0.7006,ST,medium,16
009SSAP,1,right,1,1.1842,ST,easy,1
009SSAP,0,left,1,0.9419,ST,easy,2
009SSAP,0,left,1,0.9661,ST,easy,3
009SSAP,0,left,1,0.8665,ST,easy,4
009SSAP,0,left,1,0.8326,ST,easy,5
009SSAP,0,left,1,0.7317,ST,easy,6
009SSAP,1,right,1,1.3164,ST,easy,7
009SSAP,0,left,1,0.6495,ST,easy,8
009SSAP,0,left,1,0.7049,ST,easy,9
009SSAP,0,left,1,1.2152,ST,easy,10
009SSAP,1,right,1,0.6165,ST,easy,11
009SSAP,1,right,1,1.0733,ST,easy,12
009SSAP,0,left,1,0.7592,ST,easy,13
009SSAP,1,right,1,0.6656,ST,easy,14
009SSAP,1,right,1,0.971,ST,easy,15
009SSAP,1,right,1,0.8147,ST,easy,16
009SSAP,0,left,1,2.5451,ST,hard,1
009SSAP,0,left,1,1.0408,ST,hard,2
009SSAP,0,left,1,2.5001,ST,hard,3
009SSAP,0,right,0,1.2228,ST,hard,4
009SSAP,0,left,1,1.318,ST,hard,5
009SSAP,0,left,1,3.0718,ST,hard,6
009SSAP,1,right,1,2.573,ST,hard,7
009SSAP,0,left,1,1.8298,ST,hard,8
009SSAP,0,right,0,1.6396,ST,hard,9
009SSAP,0,left,1,1.1831,ST,hard,10
009SSAP,1,right,1,1.1668,ST,hard,11
009SSAP,0,right,0,1.2302,ST,hard,12
009SSAP,1,right,1,1.584,ST,hard,13
009SSAP,0,left,1,1.3403,ST,hard,14
009SSAP,1,left,0,1.1392,ST,hard,15
009SSAP,1,right,1,2.1019,ST,hard,16
009SSAP,1,right,1,1.6062,ST,medium,1
009SSAP,1,left,0,1.3011,ST,medium,2
009SSAP,1,right,1,1.3043,ST,medium,3
009SSAP,0,left,1,1.411,ST,medium,4
009SSAP,0,left,1,1.0465,ST,medium,5
009SSAP,1,right,1,1.3044,ST,medium,6
009SSAP,0,left,1,1.1404,ST,medium,7
009SSAP,0,left,1,1.2058,ST,medium,8
009SSAP,0,left,1,2.0459,ST,medium,9
009SSAP,1,left,0,1.0634,ST,medium,10
009SSAP,0,left,1,2.3465,ST,medium,11
009SSAP,1,right,1,1.6128,ST,medium,12
009SSAP,1,left,0,0.9007,ST,medium,13
009SSAP,1,left,0,1.0628,ST,medium,14
009SSAP,0,left,1,0.9878,ST,medium,15
009SSAP,1,right,1,1.1795,ST,medium,16
010SSEA,0,left,1,0.6442,ST,easy,1
010SSEA,0,left,1,0.9663,ST,easy,2
010SSEA,0,left,1,0.647,ST,easy,3
010SSEA,0,left,1,1.1675,ST,easy,4
010SSEA,1,right,1,0.9399,ST,easy,5
010SSEA,1,left,0,0.489,ST,easy,6
010SSEA,1,right,1,1.0511,ST,easy,7
010SSEA,1,right,1,0.7035,ST,easy,8
010SSEA,1,right,1,0.7144,ST,easy,9
010SSEA,1,right,1,0.5806,ST,easy,10
010SSEA,0,left,1,1.5497,ST,easy,11
010SSEA,0,left,1,0.9419,ST,easy,12
010SSEA,1,right,1,0.7973,ST,easy,13
010SSEA,1,right,1,0.733,ST,easy,14
010SSEA,1,right,1,0.8634,ST,easy,15
010SSEA,0,left,1,1.1056,ST,easy,16
010SSEA,0,left,1,0.8821,ST,hard,1
010SSEA,1,left,0,0.9681,ST,hard,2
010SSEA,0,left,1,0.9013,ST,hard,3
010SSEA,0,left,1,0.7844,ST,hard,4
010SSEA,1,right,1,0.9006,ST,hard,5
010SSEA,0,left,1,1.072,ST,hard,6
010SSEA,1,left,0,1.1177,ST,hard,7
010SSEA,0,right,0,1.3867,ST,hard,8
010SSEA,0,left,1,1.1499,ST,hard,9
010SSEA,0,left,1,1.1533,ST,hard,10
010SSEA,0,left,1,1.0514,ST,hard,11
010SSEA,0,left,1,0.7004,ST,hard,12
010SSEA,1,left,0,2.4883,ST,hard,13
010SSEA,1,left,0,1.9676,ST,hard,14
010SSEA,1,left,0,0.9759,ST,hard,15
010SSEA,0,left,1,3.0213,ST,hard,16
010SSEA,0,left,1,0.996,ST,medium,1
010SSEA,0,left,1,0.6676,ST,medium,2
010SSEA,1,right,1,1.7242,ST,medium,3
010SSEA,0,left,1,0.8831,ST,medium,4
010SSEA,0,left,1,0.7723,ST,medium,5
010SSEA,1,right,1,1.0176,ST,medium,6
010SSEA,1,right,1,0.8476,ST,medium,7
010SSEA,1,right,1,0.6147,ST,medium,8
010SSEA,0,left,1,1.0188,ST,medium,9
010SSEA,0,left,1,0.856,ST,medium,10
010SSEA,0,left,1,0.867,ST,medium,11
010SSEA,0,left,1,0.7675,ST,medium,12
010SSEA,1,right,1,0.7263,ST,medium,13
010SSEA,0,left,1,0.9979,ST,medium,14
010SSEA,1,right,1,0.8013,ST,medium,15
010SSEA,1,right,1,1.1673,ST,medium,16
011SSAB,0,left,1,1.109,ST,easy,1
011SSAB,1,right,1,2.137,ST,easy,2
011SSAB,0,left,1,1.053,ST,easy,3
011SSAB,1,right,1,1.045,ST,easy,4
011SSAB,0,left,1,0.8,ST,easy,5
011SSAB,0,left,1,1.546,ST,easy,6
011SSAB,1,right,1,1.069,ST,easy,7
011SSAB,0,left,1,0.977,ST,easy,8
011SSAB,1,right,1,1.254,ST,easy,9
011SSAB,0,left,1,1.088,ST,easy,10
011SSAB,1,right,1,1.393,ST,easy,11
011SSAB,1,right,1,1.061,ST,easy,12
011SSAB,1,right,1,0.927,ST,easy,13
011SSAB,1,right,1,1.024,ST,easy,14
011SSAB,1,right,1,1.027,ST,easy,15
011SSAB,0,left,1,1.219,ST,easy,16
011SSAB,1,left,0,0.808,ST,hard,1
011SSAB,1,left,0,1.437,ST,hard,2
011SSAB,0,right,0,1.645,ST,hard,3
011SSAB,1,right,1,1.002,ST,hard,4
011SSAB,1,left,0,0.985,ST,hard,5
011SSAB,1,right,1,2.633,ST,hard,6
011SSAB,1,right,1,1.002,ST,hard,7
011SSAB,0,left,1,1.647,ST,hard,8
011SSAB,1,right,1,1.461,ST,hard,9
011SSAB,1,left,0,1.002,ST,hard,10
011SSAB,1,right,1,0.82,ST,hard,11
011SSAB,0,left,1,1.713,ST,hard,12
011SSAB,0,right,0,0.585,ST,hard,13
011SSAB,1,left,0,1.01,ST,hard,14
011SSAB,0,left,1,1.037,ST,hard,15
011SSAB,1,right,1,0.921,ST,hard,16
011SSAB,1,left,0,2.646,ST,medium,1
011SSAB,1,left,0,2.808,ST,medium,2
011SSAB,0,left,1,2.289,ST,medium,3
011SSAB,0,left,1,1.806,ST,medium,4
011SSAB,1,right,1,0.75,ST,medium,5
011SSAB,0,left,1,1.311,ST,medium,6
011SSAB,0,left,1,1.236,ST,medium,7
011SSAB,1,right,1,1.312,ST,medium,8
011SSAB,0,left,1,1.921,ST,medium,9
011SSAB,0,left,1,1.97,ST,medium,10
011SSAB,1,right,1,0.442,ST,medium,11
011SSAB,0,left,1,0.927,ST,medium,12
011SSAB,0,left,1,1.14,ST,medium,13
011SSAB,0,right,0,0.286,ST,medium,14
011SSAB,1,left,0,0.978,ST,medium,15
011SSAB,1,right,1,0.993,ST,medium,16
012EROP,0,left,1,0.7752,ST,easy,1
012EROP,0,left,1,0.7012,ST,easy,2
012EROP,1,left,0,0.597,ST,easy,3
012EROP,0,left,1,0.6673,ST,easy,4
012EROP,1,right,1,0.9041,ST,easy,5
012EROP,1,right,1,1.3071,ST,easy,6
012EROP,1,right,1,0.6753,ST,easy,7
012EROP,0,left,1,0.5851,ST,easy,8
012EROP,0,left,1,1.3682,ST,easy,9
012EROP,1,right,1,0.7701,ST,easy,10
012EROP,1,right,1,0.9855,ST,easy,11
012EROP,0,left,1,0.6728,ST,easy,12
012EROP,1,right,1,0.6863,ST,easy,13
012EROP,1,right,1,0.7707,ST,easy,14
012EROP,0,left,1,0.6011,ST,easy,15
012EROP,1,right,1,0.5853,ST,easy,16
012EROP,1,right,1,1.3545,ST,hard,1
012EROP,0,left,1,1.8336,ST,hard,2
012EROP,1,left,0,1.484,ST,hard,3
012EROP,0,right,0,1.4349,ST,hard,4
012EROP,0,left,1,1.4173,ST,hard,5
012EROP,0,right,0,1.4618,ST,hard,6
012EROP,1,left,0,1.4043,ST,hard,7
012EROP,1,left,0,1.0522,ST,hard,8
012EROP,0,right,0,2.2678,ST,hard,9
012EROP,0,left,1,0.6249,ST,hard,10
012EROP,0,right,0,0.7115,ST,hard,11
012EROP,1,left,0,0.9722,ST,hard,12
012EROP,0,left,1,0.7509,ST,hard,13
012EROP,0,right,0,0.8849,ST,hard,14
012EROP,0,left,1,1.2007,ST,hard,15
012EROP,1,left,0,1.2284,ST,hard,16
012EROP,0,right,0,2.1068,ST,medium,1
012EROP,0,left,1,0.9499,ST,medium,2
012EROP,1,right,1,0.934,ST,medium,3
012EROP,0,left,1,0.7251,ST,medium,4
012EROP,0,left,1,2.0651,ST,medium,5
012EROP,1,left,0,1.4004,ST,medium,6
012EROP,1,right,1,1.0072,ST,medium,7
012EROP,0,left,1,1.2125,ST,medium,8
012EROP,0,left,1,1.3054,ST,medium,9
012EROP,0,left,1,1.0339,ST,medium,10
012EROP,0,left,1,1.2387,ST,medium,11
012EROP,0,left,1,2.2403,ST,medium,12
012EROP,1,right,1,2.0007,ST,medium,13
012EROP,0,left,1,0.9859,ST,medium,14
012EROP,0,left,1,0.8286,ST,medium,15
012EROP,1,right,1,1.1838,ST,medium,16
013ERVB,0,left,1,1.015,ST,easy,1
013ERVB,1,right,1,0.729,ST,easy,2
013ERVB,1,right,1,0.764,ST,easy,3
013ERVB,1,left,0,0.636,ST,easy,4
013ERVB,1,right,1,0.766,ST,easy,5
013ERVB,0,left,1,1.405,ST,easy,6
013ERVB,0,left,1,0.743,ST,easy,7
013ERVB,1,right,1,1.059,ST,easy,8
013ERVB,0,left,1,1.138,ST,easy,9
013ERVB,0,left,1,1.434,ST,easy,10
013ERVB,1,right,1,1.298,ST,easy,11
013ERVB,0,right,0,2.871,ST,easy,12
013ERVB,1,right,1,0.666,ST,easy,13
013ERVB,0,left,1,0.753,ST,easy,14
013ERVB,0,left,1,0.636,ST,easy,15
013ERVB,1,right,1,0.69,ST,easy,16
013ERVB,1,right,1,1.102,ST,hard,1
013ERVB,1,left,0,0.917,ST,hard,2
013ERVB,1,left,0,1.688,ST,hard,3
013ERVB,0,left,1,0.99,ST,hard,4
013ERVB,0,left,1,1.466,ST,hard,5
013ERVB,1,right,1,1.108,ST,hard,6
013ERVB,0,left,1,1.339,ST,hard,7
013ERVB,1,right,1,3.356,ST,hard,8
013ERVB,1,right,1,1.18,ST,hard,9
013ERVB,0,left,1,0.714,ST,hard,10
013ERVB,0,left,1,1.123,ST,hard,11
013ERVB,1,right,1,0.689,ST,hard,12
013ERVB,0,left,1,1.707,ST,hard,13
013ERVB,0,left,1,1.682,ST,hard,14
013ERVB,1,right,1,0.84,ST,hard,15
013ERVB,1,right,1,0.822,ST,hard,16
013ERVB,1,right,1,0.933,ST,medium,1
013ERVB,0,left,1,0.921,ST,medium,2
013ERVB,1,right,1,0.972,ST,medium,3
013ERVB,1,right,1,0.961,ST,medium,4
013ERVB,0,left,1,0.722,ST,medium,5
013ERVB,1,right,1,1.402,ST,medium,6
013ERVB,1,right,1,2.336,ST,medium,7
013ERVB,0,left,1,1.137,ST,medium,8
013ERVB,0,left,1,0.955,ST,medium,9
013ERVB,1,right,1,1.75,ST,medium,10
013ERVB,0,left,1,1.264,ST,medium,11
013ERVB,0,left,1,0.914,ST,medium,12
013ERVB,0,left,1,0.878,ST,medium,13
013ERVB,0,left,1,1.024,ST,medium,14
013ERVB,1,right,1,0.801,ST,medium,15
013ERVB,0,left,1,1.171,ST,medium,16
014ERAI,1,right,1,1.1667,ST,easy,1
014ERAI,1,right,1,1.0338,ST,easy,2
014ERAI,1,right,1,1.0196,ST,easy,3
014ERAI,1,right,1,0.9016,ST,easy,4
014ERAI,1,right,1,0.6667,ST,easy,5
014ERAI,0,left,1,1.2987,ST,easy,6
014ERAI,0,left,1,0.7506,ST,easy,7
014ERAI,0,left,1,0.9006,ST,easy,8
014ERAI,1,right,1,2.1323,ST,easy,9
014ERAI,1,right,1,0.9505,ST,easy,10
014ERAI,1,right,1,0.7325,ST,easy,11
014ERAI,1,left,0,2.2188,ST,easy,12
014ERAI,0,left,1,0.6509,ST,easy,13
014ERAI,1,right,1,0.8172,ST,easy,14
014ERAI,0,left,1,0.7854,ST,easy,15
014ERAI,1,right,1,0.6588,ST,easy,16
014ERAI,1,right,1,1.0221,ST,hard,1
014ERAI,1,left,0,0.8339,ST,hard,2
014ERAI,1,right,1,0.8503,ST,hard,3
014ERAI,1,left,0,0.817,ST,hard,4
014ERAI,1,right,1,0.717,ST,hard,5
014ERAI,1,right,1,0.6666,ST,hard,6
014ERAI,1,left,0,0.7347,ST,hard,7
014ERAI,0,left,1,0.6835,ST,hard,8
014ERAI,1,left,0,0.8947,ST,hard,9
014ERAI,0,left,1,0.7175,ST,hard,10
014ERAI,1,left,0,0.7836,ST,hard,11
014ERAI,1,right,1,1.7349,ST,hard,12
014ERAI,1,left,0,0.633,ST,hard,13
014ERAI,0,left,1,0.5167,ST,hard,14
014ERAI,1,right,1,1.2526,ST,hard,15
014ERAI,1,right,1,1.2996,ST,hard,16
014ERAI,1,right,1,1.3945,ST,medium,1
014ERAI,1,right,1,1.218,ST,medium,2
014ERAI,1,right,1,1.4669,ST,medium,3
014ERAI,1,right,1,1.0002,ST,medium,4
014ERAI,1,left,0,1.0864,ST,medium,5
014ERAI,0,left,1,0.8983,ST,medium,6
014ERAI,0,left,1,1.3855,ST,medium,7
014ERAI,1,right,1,0.8352,ST,medium,8
014ERAI,1,left,0,0.867,ST,medium,9
014ERAI,1,right,1,0.7498,ST,medium,10
014ERAI,1,left,0,0.707,ST,medium,11
014ERAI,1,right,1,0.8507,ST,medium,12
014ERAI,0,left,1,0.5854,ST,medium,13
014ERAI,1,left,0,0.8016,ST,medium,14
014ERAI,1,left,0,0.8162,ST,medium,15
014ERAI,0,right,0,1.4673,ST,medium,16
015ERIG,0,left,1,1.461,ST,easy,1
015ERIG,1,right,1,1.047,ST,easy,2
015ERIG,1,right,1,1.348,ST,easy,3
015ERIG,0,left,1,1.96,ST,easy,4
015ERIG,1,right,1,2.363,ST,easy,5
015ERIG,0,left,1,0.941,ST,easy,6
015ERIG,1,right,1,1.205,ST,easy,7
015ERIG,0,left,1,1.09,ST,easy,8
015ERIG,1,right,1,1.189,ST,easy,9
015ERIG,1,right,1,1.078,ST,easy,10
015ERIG,0,left,1,0.981,ST,easy,11
015ERIG,1,right,1,1.217,ST,easy,12
015ERIG,1,right,1,1.031,ST,easy,13
015ERIG,1,right,1,0.872,ST,easy,14
015ERIG,0,left,1,1.04,ST,easy,15
015ERIG,1,right,1,1.081,ST,easy,16
015ERIG,1,right,1,0.864,ST,hard,1
015ERIG,0,left,1,1.269,ST,hard,2
015ERIG,1,right,1,1.081,ST,hard,3
015ERIG,1,right,1,1.39,ST,hard,4
015ERIG,0,left,1,1.056,ST,hard,5
015ERIG,0,left,1,2.798,ST,hard,6
015ERIG,1,left,0,1.34,ST,hard,7
015ERIG,1,left,0,6.48,ST,hard,8
015ERIG,1,right,1,0.893,ST,hard,9
015ERIG,1,right,1,0.891,ST,hard,10
015ERIG,0,left,1,1.079,ST,hard,11
015ERIG,1,right,1,0.79,ST,hard,12
015ERIG,0,left,1,1.314,ST,hard,13
015ERIG,0,right,0,1.661,ST,hard,14
015ERIG,1,left,0,1.341,ST,hard,15
015ERIG,1,right,1,1.148,ST,hard,16
015ERIG,1,right,1,1.58,ST,medium,1
015ERIG,0,left,1,5.623,ST,medium,2
015ERIG,1,right,1,1.214,ST,medium,3
015ERIG,0,left,1,1.191,ST,medium,4
015ERIG,1,right,1,1.307,ST,medium,5
015ERIG,0,left,1,1.341,ST,medium,6
015ERIG,1,right,1,1.35,ST,medium,7
015ERIG,1,right,1,1.646,ST,medium,8
015ERIG,1,right,1,0.91,ST,medium,9
015ERIG,0,left,1,1.318,ST,medium,10
015ERIG,0,left,1,2.644,ST,medium,11
015ERIG,0,left,1,4.932,ST,medium,12
015ERIG,1,right,1,0.866,ST,medium,13
015ERIG,1,right,1,1.091,ST,medium,14
015ERIG,1,right,1,1.502,ST,medium,15
015ERIG,1,right,1,1.282,ST,medium,16
016ERSA,0,left,1,0.8806,ST,easy,1
016ERSA,0,left,1,1.4485,ST,easy,2
016ERSA,1,right,1,2.8398,ST,easy,3
016ERSA,0,left,1,2.3651,ST,easy,4
016ERSA,0,left,1,0.833,ST,easy,5
016ERSA,1,right,1,1.1232,ST,easy,6
016ERSA,1,right,1,1.165,ST,easy,7
016ERSA,1,right,1,2.265,ST,easy,8
016ERSA,0,left,1,1.4262,ST,easy,9
016ERSA,1,right,1,1.4903,ST,easy,10
016ERSA,0,left,1,0.9075,ST,easy,11
016ERSA,0,left,1,1.8581,ST,easy,12
016ERSA,1,right,1,1.4595,ST,easy,13
016ERSA,0,left,1,1.2306,ST,easy,14
016ERSA,1,right,1,2.0908,ST,easy,15
016ERSA,1,right,1,2.3822,ST,easy,16
016ERSA,0,left,1,1.3975,ST,hard,1
016ERSA,1,right,1,1.1813,ST,hard,2
016ERSA,1,right,1,1.2549,ST,hard,3
016ERSA,0,left,1,1.7885,ST,hard,4
016ERSA,1,left,0,0.9346,ST,hard,5
016ERSA,0,left,1,1.6806,ST,hard,6
016ERSA,0,left,1,0.9276,ST,hard,7
016ERSA,0,right,0,1.0922,ST,hard,8
016ERSA,1,right,1,1.9824,ST,hard,9
016ERSA,1,left,0,1.4704,ST,hard,10
016ERSA,0,left,1,1.7322,ST,hard,11
016ERSA,1,left,0,2.9214,ST,hard,12
016ERSA,0,left,1,2.5225,ST,hard,13
016ERSA,0,left,1,3.379,ST,hard,14
016ERSA,0,left,1,1.6324,ST,hard,15
016ERSA,0,right,0,1.2062,ST,hard,16
016ERSA,0,left,1,2.5911,ST,medium,1
016ERSA,0,left,1,1.224,ST,medium,2
016ERSA,0,left,1,0.9384,ST,medium,3
016ERSA,1,right,1,1.5949,ST,medium,4
016ERSA,0,right,0,3.2333,ST,medium,5
016ERSA,0,left,1,1.5248,ST,medium,6
016ERSA,0,left,1,1.2233,ST,medium,7
016ERSA,0,left,1,2.5573,ST,medium,8
016ERSA,1,left,0,2.4824,ST,medium,9
016ERSA,1,right,1,2.3979,ST,medium,10
016ERSA,1,right,1,1.5617,ST,medium,11
016ERSA,0,left,1,1.8577,ST,medium,12
016ERSA,1,right,1,1.2251,ST,medium,13
016ERSA,0,left,1,1.1407,ST,medium,14
016ERSA,1,right,1,1.022,ST,medium,15
016ERSA,1,left,0,3.7749,ST,medium,16
069SSMV,0,left,1,1.113,ST,easy,1
069SSMV,1,right,1,1.934,ST,easy,2
069SSMV,1,left,0,1.05,ST,easy,3
069SSMV,1,right,1,1.882,ST,easy,4
069SSMV,0,left,1,1.105,ST,easy,5
069SSMV,1,right,1,1.337,ST,easy,6
069SSMV,0,left,1,0.747,ST,easy,7
069SSMV,1,right,1,1.06,ST,easy,8
069SSMV,1,right,1,1.173,ST,easy,9
069SSMV,0,left,1,4.471,ST,easy,10
069SSMV,1,right,1,1.17,ST,easy,11
069SSMV,0,left,1,1.861,ST,easy,12
069SSMV,1,right,1,1.068,ST,easy,13
069SSMV,1,right,1,1.49,ST,easy,14
069SSMV,1,left,0,3.971,ST,easy,15
069SSMV,0,left,1,1.085,ST,easy,16
069SSMV,1,right,1,2.706,ST,hard,1
069SSMV,1,right,1,0.891,ST,hard,2
069SSMV,0,left,1,1.016,ST,hard,3
069SSMV,1,left,0,0.876,ST,hard,4
069SSMV,0,left,1,0.78,ST,hard,5
069SSMV,1,left,0,0.795,ST,hard,6
069SSMV,1,left,0,0.735,ST,hard,7
069SSMV,1,left,0,1.163,ST,hard,8
069SSMV,1,right,1,0.849,ST,hard,9
069SSMV,0,left,1,0.92,ST,hard,10
069SSMV,1,right,1,0.768,ST,hard,11
069SSMV,0,left,1,0.829,ST,hard,12
069SSMV,0,right,0,1.352,ST,hard,13
069SSMV,1,left,0,0.949,ST,hard,14
069SSMV,0,left,1,0.645,ST,hard,15
069SSMV,0,left,1,0.846,ST,hard,16
069SSMV,0,left,1,3.558,ST,medium,1
069SSMV,0,left,1,1.136,ST,medium,2
069SSMV,0,left,1,1.874,ST,medium,3
069SSMV,1,right,1,1.205,ST,medium,4
069SSMV,0,left,1,0.945,ST,medium,5
069SSMV,1,right,1,0.932,ST,medium,6
069SSMV,1,right,1,1.203,ST,medium,7
069SSMV,1,left,0,1.245,ST,medium,8
069SSMV,0,right,0,1.953,ST,medium,9
069SSMV,1,left,0,0.843,ST,medium,10
069SSMV,1,right,1,1.02,ST,medium,11
069SSMV,1,right,1,2.394,ST,medium,12
069SSMV,1,left,0,0.843,ST,medium,13
069SSMV,0,left,1,0.922,ST,medium,14
069SSMV,1,right,1,0.789,ST,medium,15
069SSMV,0,left,1,1.198,ST,medium,16
019ERSM,1,right,1,1.3478,ST,easy,1
019ERSM,0,left,1,2.9016,ST,easy,2
019ERSM,0,left,1,2.9211,ST,easy,3
019ERSM,1,right,1,1.6007,ST,easy,4
019ERSM,0,left,1,4.1863,ST,easy,5
019ERSM,1,right,1,5.0674,ST,easy,6
019ERSM,1,right,1,1.0777,ST,easy,7
019ERSM,1,right,1,1.2517,ST,easy,8
019ERSM,1,left,0,1.7846,ST,easy,9
019ERSM,1,right,1,0.99,ST,easy,10
019ERSM,1,right,1,0.962,ST,easy,11
019ERSM,0,left,1,2.1451,ST,easy,12
019ERSM,0,left,1,1.334,ST,easy,13
019ERSM,0,left,1,1.8266,ST,easy,14
019ERSM,0,left,1,1.3754,ST,easy,15
019ERSM,1,right,1,0.9505,ST,easy,16
019ERSM,0,left,1,2.0547,ST,hard,1
019ERSM,0,left,1,1.0344,ST,hard,2
019ERSM,0,left,1,3.0243,ST,hard,3
019ERSM,0,left,1,1.3001,ST,hard,4
019ERSM,1,right,1,1.0698,ST,hard,5
019ERSM,0,left,1,2.9847,ST,hard,6
019ERSM,0,right,0,2.3729,ST,hard,7
019ERSM,0,left,1,3.0279,ST,hard,8
019ERSM,1,left,0,1.7453,ST,hard,9
019ERSM,0,left,1,2.8008,ST,hard,10
019ERSM,0,left,1,0.952,ST,hard,11
019ERSM,1,right,1,1.7847,ST,hard,12
019ERSM,0,right,0,1.6429,ST,hard,13
019ERSM,0,right,0,2.4146,ST,hard,14
019ERSM,0,left,1,2.2645,ST,hard,15
019ERSM,0,right,0,2.0361,ST,hard,16
019ERSM,0,left,1,1.3147,ST,medium,1
019ERSM,1,right,1,1.0321,ST,medium,2
019ERSM,0,left,1,1.036,ST,medium,3
019ERSM,1,left,0,2.3005,ST,medium,4
019ERSM,0,left,1,0.9688,ST,medium,5
019ERSM,0,left,1,2.3661,ST,medium,6
019ERSM,0,left,1,1.6033,ST,medium,7
019ERSM,0,left,1,0.8344,ST,medium,8
019ERSM,0,left,1,0.8498,ST,medium,9
019ERSM,1,right,1,3.9126,ST,medium,10
019ERSM,1,right,1,1.5032,ST,medium,11
019ERSM,1,right,1,1.1176,ST,medium,12
019ERSM,1,right,1,1.178,ST,medium,13
019ERSM,0,left,1,0.9187,ST,medium,14
019ERSM,1,right,1,6.2055,ST,medium,15
019ERSM,1,right,1,1.0189,ST,medium,16
021SSAZ,0,left,1,0.9046,ST,easy,1
021SSAZ,1,right,1,0.8064,ST,easy,2
021SSAZ,0,left,1,0.774,ST,easy,3
021SSAZ,1,right,1,1.4263,ST,easy,4
021SSAZ,0,left,1,1.1203,ST,easy,5
021SSAZ,1,right,1,0.8974,ST,easy,6
021SSAZ,0,left,1,0.7318,ST,easy,7
021SSAZ,0,left,1,0.7661,ST,easy,8
021SSAZ,1,right,1,1.1025,ST,easy,9
021SSAZ,0,left,1,0.8241,ST,easy,10
021SSAZ,0,left,1,0.7158,ST,easy,11
021SSAZ,0,left,1,0.5638,ST,easy,12
021SSAZ,1,right,1,2.0826,ST,easy,13
021SSAZ,1,right,1,2.4977,ST,easy,14
021SSAZ,0,left,1,0.6162,ST,easy,15
021SSAZ,0,left,1,0.5822,ST,easy,16
021SSAZ,1,right,1,1.7324,ST,hard,1
021SSAZ,0,right,0,3.1994,ST,hard,2
021SSAZ,0,right,0,1.1671,ST,hard,3
021SSAZ,0,left,1,0.9541,ST,hard,4
021SSAZ,0,left,1,0.969,ST,hard,5
021SSAZ,0,left,1,0.8669,ST,hard,6
021SSAZ,1,right,1,1.234,ST,hard,7
021SSAZ,1,left,0,1.0037,ST,hard,8
021SSAZ,0,right,0,1.6649,ST,hard,9
021SSAZ,1,left,0,0.9221,ST,hard,10
021SSAZ,0,left,1,1.5817,ST,hard,11
021SSAZ,0,left,1,0.9537,ST,hard,12
021SSAZ,1,left,0,1.0718,ST,hard,13
021SSAZ,1,left,0,1.0231,ST,hard,14
021SSAZ,0,left,1,0.916,ST,hard,15
021SSAZ,0,left,1,0.7885,ST,hard,16
021SSAZ,0,left,1,1.1011,ST,medium,1
021SSAZ,1,left,0,0.8659,ST,medium,2
021SSAZ,1,right,1,1.0047,ST,medium,3
021SSAZ,0,left,1,1.1156,ST,medium,4
021SSAZ,0,left,1,0.9338,ST,medium,5
021SSAZ,1,right,1,1.4082,ST,medium,6
021SSAZ,0,left,1,0.8978,ST,medium,7
021SSAZ,0,left,1,0.9488,ST,medium,8
021SSAZ,0,left,1,0.7531,ST,medium,9
021SSAZ,0,left,1,0.8043,ST,medium,10
021SSAZ,1,right,1,1.1326,ST,medium,11
021SSAZ,0,left,1,0.8152,ST,medium,12
021SSAZ,0,left,1,0.6691,ST,medium,13
021SSAZ,1,left,0,0.7198,ST,medium,14
021SSAZ,1,right,1,1.3166,ST,medium,15
021SSAZ,1,right,1,0.743,ST,medium,16
022ERVS,0,left,1,4.3161,ST,easy,1
022ERVS,1,right,1,1.5681,ST,easy,2
022ERVS,0,left,1,1.4044,ST,easy,3
022ERVS,0,left,1,3.1937,ST,easy,4
022ERVS,0,left,1,1.368,ST,easy,5
022ERVS,1,right,1,1.5179,ST,easy,6
022ERVS,1,right,1,1.4011,ST,easy,7
022ERVS,0,left,1,0.9012,ST,easy,8
022ERVS,0,left,1,0.9178,ST,easy,9
022ERVS,0,left,1,0.8281,ST,easy,10
022ERVS,0,left,1,1.373,ST,easy,11
022ERVS,0,left,1,1.3726,ST,easy,12
022ERVS,1,right,1,1.1419,ST,easy,13
022ERVS,0,left,1,1.0233,ST,easy,14
022ERVS,0,left,1,1.0673,ST,easy,15
022ERVS,1,right,1,0.9677,ST,easy,16
022ERVS,1,right,1,1.1699,ST,hard,1
022ERVS,1,right,1,2.0982,ST,hard,2
022ERVS,0,right,0,1.9856,ST,hard,3
022ERVS,1,right,1,1.268,ST,hard,4
022ERVS,0,left,1,1.5676,ST,hard,5
022ERVS,1,right,1,3.2858,ST,hard,6
022ERVS,1,right,1,1.515,ST,hard,7
022ERVS,1,right,1,1.2647,ST,hard,8
022ERVS,0,left,1,2.2187,ST,hard,9
022ERVS,0,right,0,2.5155,ST,hard,10
022ERVS,0,left,1,1.3858,ST,hard,11
022ERVS,1,right,1,1.2151,ST,hard,12
022ERVS,0,left,1,1.3046,ST,hard,13
022ERVS,1,right,1,1.5473,ST,hard,14
022ERVS,0,left,1,1.3547,ST,hard,15
022ERVS,1,right,1,1.1894,ST,hard,16
022ERVS,1,right,1,1.7659,ST,medium,1
022ERVS,1,right,1,1.5359,ST,medium,2
022ERVS,1,right,1,1.4178,ST,medium,3
022ERVS,1,right,1,1.2651,ST,medium,4
022ERVS,1,right,1,1.5913,ST,medium,5
022ERVS,0,left,1,1.5056,ST,medium,6
022ERVS,0,left,1,1.3856,ST,medium,7
022ERVS,0,left,1,4.2176,ST,medium,8
022ERVS,0,left,1,2.8989,ST,medium,9
022ERVS,1,left,0,1.3232,ST,medium,10
022ERVS,1,right,1,2.0313,ST,medium,11
022ERVS,1,right,1,1.6487,ST,medium,12
022ERVS,1,right,1,2.3351,ST,medium,13
022ERVS,1,right,1,1.5178,ST,medium,14
022ERVS,0,left,1,3.6831,ST,medium,15
022ERVS,1,right,1,1.9311,ST,medium,16
023ERRS,0,left,1,0.681,ST,easy,1
023ERRS,1,right,1,0.567,ST,easy,2
023ERRS,0,left,1,0.765,ST,easy,3
023ERRS,1,right,1,0.808,ST,easy,4
023ERRS,0,left,1,0.849,ST,easy,5
023ERRS,0,left,1,0.769,ST,easy,6
023ERRS,1,right,1,0.892,ST,easy,7
023ERRS,1,right,1,0.695,ST,easy,8
023ERRS,0,left,1,0.759,ST,easy,9
023ERRS,1,right,1,0.814,ST,easy,10
023ERRS,0,left,1,0.543,ST,easy,11
023ERRS,1,right,1,0.63,ST,easy,12
023ERRS,0,left,1,1.007,ST,easy,13
023ERRS,1,right,1,0.679,ST,easy,14
023ERRS,1,right,1,0.576,ST,easy,15
023ERRS,0,left,1,0.711,ST,easy,16
023ERRS,0,left,1,1.35,ST,hard,1
023ERRS,0,left,1,0.792,ST,hard,2
023ERRS,1,right,1,0.792,ST,hard,3
023ERRS,0,left,1,0.693,ST,hard,4
023ERRS,0,right,0,1.274,ST,hard,5
023ERRS,1,right,1,0.878,ST,hard,6
023ERRS,0,right,0,1.792,ST,hard,7
023ERRS,1,right,1,0.71,ST,hard,8
023ERRS,1,right,1,0.711,ST,hard,9
023ERRS,1,right,1,0.558,ST,hard,10
023ERRS,1,right,1,0.727,ST,hard,11
023ERRS,0,left,1,1.16,ST,hard,12
023ERRS,1,left,0,0.71,ST,hard,13
023ERRS,0,left,1,1.158,ST,hard,14
023ERRS,1,left,0,0.811,ST,hard,15
023ERRS,1,right,1,0.475,ST,hard,16
023ERRS,1,right,1,0.79,ST,medium,1
023ERRS,1,right,1,0.626,ST,medium,2
023ERRS,1,right,1,0.907,ST,medium,3
023ERRS,0,left,1,0.741,ST,medium,4
023ERRS,1,right,1,0.645,ST,medium,5
023ERRS,1,left,0,0.773,ST,medium,6
023ERRS,0,left,1,0.731,ST,medium,7
023ERRS,1,right,1,0.794,ST,medium,8
023ERRS,1,right,1,0.743,ST,medium,9
023ERRS,1,right,1,0.659,ST,medium,10
023ERRS,1,right,1,0.673,ST,medium,11
023ERRS,0,left,1,1.609,ST,medium,12
023ERRS,1,left,0,0.926,ST,medium,13
023ERRS,0,left,1,0.792,ST,medium,14
023ERRS,0,left,1,0.978,ST,medium,15
023ERRS,1,right,1,0.728,ST,medium,16
024SSSV,1,right,1,2.0969,ST,easy,1
024SSSV,0,left,1,0.9978,ST,easy,2
024SSSV,1,right,1,0.8467,ST,easy,3
024SSSV,1,right,1,1.1326,ST,easy,4
024SSSV,1,right,1,0.4685,ST,easy,5
024SSSV,1,right,1,0.7565,ST,easy,6
024SSSV,1,right,1,0.6055,ST,easy,7
024SSSV,1,right,1,1.1476,ST,easy,8
024SSSV,1,right,1,1.9641,ST,easy,9
024SSSV,1,left,0,1.1833,ST,easy,10
024SSSV,0,left,1,1.2404,ST,easy,11
024SSSV,0,left,1,0.6704,ST,easy,12
024SSSV,0,left,1,0.7809,ST,easy,13
024SSSV,0,left,1,1.1186,ST,easy,14
024SSSV,0,left,1,0.8327,ST,easy,15
024SSSV,1,right,1,2.18,ST,easy,16
024SSSV,0,left,1,1.3971,ST,hard,1
024SSSV,1,right,1,1.2333,ST,hard,2
024SSSV,0,left,1,1.0756,ST,hard,3
024SSSV,1,right,1,1.0344,ST,hard,4
024SSSV,1,left,0,0.7676,ST,hard,5
024SSSV,0,right,0,1.1008,ST,hard,6
024SSSV,0,left,1,0.6892,ST,hard,7
024SSSV,0,left,1,1.2005,ST,hard,8
024SSSV,0,right,0,0.9005,ST,hard,9
024SSSV,0,right,0,0.9332,ST,hard,10
024SSSV,0,left,1,1.3178,ST,hard,11
024SSSV,1,right,1,5.3855,ST,hard,12
024SSSV,1,right,1,0.6843,ST,hard,13
024SSSV,1,right,1,0.3345,ST,hard,14
024SSSV,1,right,1,0.4209,ST,hard,15
024SSSV,0,right,0,0.934,ST,hard,16
024SSSV,1,right,1,1.4275,ST,medium,1
024SSSV,0,left,1,0.707,ST,medium,2
024SSSV,1,right,1,0.9177,ST,medium,3
024SSSV,1,right,1,3.7848,ST,medium,4
024SSSV,1,right,1,0.6986,ST,medium,5
024SSSV,1,right,1,0.9808,ST,medium,6
024SSSV,1,right,1,1.7324,ST,medium,7
024SSSV,0,right,0,0.6473,ST,medium,8
024SSSV,1,left,0,0.8028,ST,medium,9
024SSSV,0,left,1,1.2487,ST,medium,10
024SSSV,0,left,1,0.9697,ST,medium,11
024SSSV,1,right,1,1.2035,ST,medium,12
024SSSV,1,left,0,1.4873,ST,medium,13
024SSSV,0,right,0,0.7488,ST,medium,14
024SSSV,1,right,1,1.0652,ST,medium,15
024SSSV,0,right,0,1.9662,ST,medium,16
026SSDM,1,right,1,1.2651,ST,easy,1
026SSDM,0,left,1,1.2185,ST,easy,2
026SSDM,1,right,1,1.0678,ST,easy,3
026SSDM,1,right,1,1.1176,ST,easy,4
026SSDM,0,left,1,0.9735,ST,easy,5
026SSDM,1,right,1,0.9191,ST,easy,6
026SSDM,1,right,1,1.1845,ST,easy,7
026SSDM,0,left,1,0.9014,ST,easy,8
026SSDM,1,right,1,0.8677,ST,easy,9
026SSDM,1,right,1,0.8152,ST,easy,10
026SSDM,1,right,1,0.8859,ST,easy,11
026SSDM,0,left,1,0.798,ST,easy,12
026SSDM,0,left,1,1.0674,ST,easy,13
026SSDM,1,right,1,0.9412,ST,easy,14
026SSDM,0,left,1,1.0079,ST,easy,15
026SSDM,0,left,1,0.9978,ST,easy,16
026SSDM,0,left,1,1.7672,ST,hard,1
026SSDM,0,left,1,1.015,ST,hard,2
026SSDM,0,left,1,1.6986,ST,hard,3
026SSDM,0,right,0,1.701,ST,hard,4
026SSDM,1,right,1,1.5155,ST,hard,5
026SSDM,0,right,0,1.4486,ST,hard,6
026SSDM,0,right,0,1.4482,ST,hard,7
026SSDM,1,right,1,1.3611,ST,hard,8
026SSDM,1,right,1,0.9318,ST,hard,9
026SSDM,1,right,1,1.0515,ST,hard,10
026SSDM,1,right,1,1.5324,ST,hard,11
026SSDM,0,left,1,2.2021,ST,hard,12
026SSDM,1,left,0,2.4994,ST,hard,13
026SSDM,0,left,1,2.4656,ST,hard,14
026SSDM,0,left,1,1.4821,ST,hard,15
026SSDM,0,left,1,1.3987,ST,hard,16
026SSDM,0,left,1,1.9765,ST,medium,1
026SSDM,1,right,1,0.982,ST,medium,2
026SSDM,1,right,1,0.7131,ST,medium,3
026SSDM,1,right,1,1.0854,ST,medium,4
026SSDM,1,left,0,1.0587,ST,medium,5
026SSDM,1,right,1,2.8993,ST,medium,6
026SSDM,1,right,1,3.4286,ST,medium,7
026SSDM,1,right,1,1.1511,ST,medium,8
026SSDM,1,right,1,1.6653,ST,medium,9
026SSDM,0,left,1,0.9302,ST,medium,10
026SSDM,1,left,0,3.3989,ST,medium,11
026SSDM,0,left,1,1.0846,ST,medium,12
026SSDM,1,right,1,1.2515,ST,medium,13
026SSDM,1,right,1,2.4784,ST,medium,14
026SSDM,0,left,1,0.934,ST,medium,15
026SSDM,1,left,0,0.9196,ST,medium,16
027ARDB,1,left,0,1.1253,ST,easy,1
027ARDB,1,right,1,1.0443,ST,easy,2
027ARDB,0,left,1,0.9193,ST,easy,3
027ARDB,0,left,1,0.9349,ST,easy,4
027ARDB,0,left,1,0.7856,ST,easy,5
027ARDB,0,left,1,0.6935,ST,easy,6
027ARDB,0,left,1,0.6565,ST,easy,7
027ARDB,0,left,1,0.6081,ST,easy,8
027ARDB,1,right,1,0.8146,ST,easy,9
027ARDB,0,left,1,0.7983,ST,easy,10
027ARDB,1,right,1,0.8997,ST,easy,11
027ARDB,1,right,1,0.551,ST,easy,12
027ARDB,0,left,1,0.9824,ST,easy,13
027ARDB,1,right,1,1.0807,ST,easy,14
027ARDB,1,right,1,1.0151,ST,easy,15
027ARDB,1,right,1,1.065,ST,easy,16
027ARDB,1,left,0,3.3221,ST,hard,1
027ARDB,1,right,1,2.5973,ST,hard,2
027ARDB,0,left,1,1.2465,ST,hard,3
027ARDB,0,left,1,1.4516,ST,hard,4
027ARDB,1,right,1,1.2479,ST,hard,5
027ARDB,0,left,1,1.0897,ST,hard,6
027ARDB,0,left,1,1.336,ST,hard,7
027ARDB,1,left,0,1.2461,ST,hard,8
027ARDB,1,left,0,1.3458,ST,hard,9
027ARDB,1,left,0,1.1739,ST,hard,10
027ARDB,1,left,0,2.3258,ST,hard,11
027ARDB,1,left,0,1.3788,ST,hard,12
027ARDB,1,right,1,0.8357,ST,hard,13
027ARDB,0,right,0,1.2501,ST,hard,14
027ARDB,0,left,1,1.1825,ST,hard,15
027ARDB,1,left,0,1.3221,ST,hard,16
027ARDB,1,right,1,1.8658,ST,medium,1
027ARDB,0,left,1,1.5509,ST,medium,2
027ARDB,0,left,1,1.9086,ST,medium,3
027ARDB,1,right,1,1.3706,ST,medium,4
027ARDB,0,left,1,1.5298,ST,medium,5
027ARDB,0,left,1,1.5751,ST,medium,6
027ARDB,1,right,1,1.7391,ST,medium,7
027ARDB,0,left,1,3.1694,ST,medium,8
027ARDB,0,left,1,4.955,ST,medium,9
027ARDB,1,right,1,4.3319,ST,medium,10
027ARDB,0,left,1,1.4126,ST,medium,11
027ARDB,1,right,1,1.4011,ST,medium,12
027ARDB,0,left,1,3.2251,ST,medium,13
027ARDB,1,right,1,1.6991,ST,medium,14
027ARDB,1,right,1,1.184,ST,medium,15
027ARDB,0,left,1,2.6447,ST,medium,16
029SSDL,1,right,1,0.9573,ST,easy,1
029SSDL,1,right,1,0.8015,ST,easy,2
029SSDL,1,right,1,0.9232,ST,easy,3
029SSDL,1,right,1,0.6676,ST,easy,4
029SSDL,0,left,1,0.5549,ST,easy,5
029SSDL,1,right,1,0.9308,ST,easy,6
029SSDL,1,right,1,0.6058,ST,easy,7
029SSDL,0,left,1,0.5322,ST,easy,8
029SSDL,0,left,1,1.1173,ST,easy,9
029SSDL,0,left,1,0.4751,ST,easy,10
029SSDL,0,left,1,0.4527,ST,easy,11
029SSDL,1,right,1,0.6558,ST,easy,12
029SSDL,1,right,1,0.753,ST,easy,13
029SSDL,0,left,1,0.4688,ST,easy,14
029SSDL,1,right,1,0.5611,ST,easy,15
029SSDL,1,left,0,0.5965,ST,easy,16
029SSDL,1,left,0,0.9787,ST,hard,1
029SSDL,0,left,1,0.8732,ST,hard,2
029SSDL,1,right,1,0.8293,ST,hard,3
029SSDL,1,left,0,0.5882,ST,hard,4
029SSDL,0,left,1,0.6234,ST,hard,5
029SSDL,0,left,1,0.723,ST,hard,6
029SSDL,0,right,0,0.8236,ST,hard,7
029SSDL,1,right,1,0.8227,ST,hard,8
029SSDL,0,left,1,0.7581,ST,hard,9
029SSDL,1,left,0,0.5471,ST,hard,10
029SSDL,0,right,0,0.8021,ST,hard,11
029SSDL,1,right,1,0.6531,ST,hard,12
029SSDL,1,left,0,0.6309,ST,hard,13
029SSDL,1,left,0,0.737,ST,hard,14
029SSDL,0,left,1,0.4336,ST,hard,15
029SSDL,1,left,0,2.3696,ST,hard,16
029SSDL,0,left,1,1.595,ST,medium,1
029SSDL,0,left,1,2.8328,ST,medium,2
029SSDL,1,right,1,2.4626,ST,medium,3
029SSDL,0,left,1,1.2716,ST,medium,4
029SSDL,0,left,1,1.9502,ST,medium,5
029SSDL,1,right,1,1.9798,ST,medium,6
029SSDL,0,left,1,1.1426,ST,medium,7
029SSDL,0,left,1,0.8786,ST,medium,8
029SSDL,1,right,1,1.0224,ST,medium,9
029SSDL,0,left,1,1.6602,ST,medium,10
029SSDL,0,left,1,0.9707,ST,medium,11
029SSDL,0,left,1,1.0783,ST,medium,12
029SSDL,0,left,1,1.5258,ST,medium,13
029SSDL,0,left,1,1.909,ST,medium,14
029SSDL,1,right,1,2.3484,ST,medium,15
029SSDL,1,right,1,1.7728,ST,medium,16
031SSAS,0,left,1,0.5881,ST,easy,1
031SSAS,0,left,1,0.4732,ST,easy,2
031SSAS,0,left,1,0.5263,ST,easy,3
031SSAS,0,left,1,0.612,ST,easy,4
031SSAS,1,right,1,0.5838,ST,easy,5
031SSAS,1,right,1,0.509,ST,easy,6
031SSAS,1,right,1,0.5035,ST,easy,7
031SSAS,0,left,1,0.5421,ST,easy,8
031SSAS,0,left,1,0.7714,ST,easy,9
031SSAS,1,right,1,0.9576,ST,easy,10
031SSAS,1,right,1,0.6947,ST,easy,11
031SSAS,0,left,1,0.644,ST,easy,12
031SSAS,1,right,1,0.698,ST,easy,13
031SSAS,0,left,1,0.6167,ST,easy,14
031SSAS,1,right,1,0.7341,ST,easy,15
031SSAS,0,left,1,0.5799,ST,easy,16
031SSAS,0,left,1,2.6965,ST,hard,1
031SSAS,1,right,1,0.7794,ST,hard,2
031SSAS,1,right,1,0.9246,ST,hard,3
031SSAS,0,right,0,0.6813,ST,hard,4
031SSAS,1,left,0,0.8976,ST,hard,5
031SSAS,0,right,0,0.7336,ST,hard,6
031SSAS,1,right,1,0.6615,ST,hard,7
031SSAS,0,right,0,0.7321,ST,hard,8
031SSAS,1,left,0,0.6071,ST,hard,9
031SSAS,0,left,1,0.7464,ST,hard,10
031SSAS,1,left,0,0.6296,ST,hard,11
031SSAS,1,left,0,0.7455,ST,hard,12
031SSAS,1,left,0,0.6255,ST,hard,13
031SSAS,0,left,1,0.6475,ST,hard,14
031SSAS,0,right,0,1.007,ST,hard,15
031SSAS,1,left,0,0.7326,ST,hard,16
031SSAS,1,right,1,0.9316,ST,medium,1
031SSAS,1,right,1,0.958,ST,medium,2
031SSAS,0,left,1,0.6123,ST,medium,3
031SSAS,0,left,1,0.5764,ST,medium,4
031SSAS,1,right,1,0.6319,ST,medium,5
031SSAS,1,right,1,0.7475,ST,medium,6
031SSAS,1,left,0,0.6056,ST,medium,7
031SSAS,0,left,1,0.7976,ST,medium,8
031SSAS,0,left,1,0.5474,ST,medium,9
031SSAS,1,right,1,0.7325,ST,medium,10
031SSAS,0,left,1,0.5531,ST,medium,11
031SSAS,0,left,1,0.6208,ST,medium,12
031SSAS,0,left,1,0.8787,ST,medium,13
031SSAS,1,right,1,0.4,ST,medium,14
031SSAS,1,right,1,0.5477,ST,medium,15
031SSAS,1,left,0,0.9265,ST,medium,16
032SSAP,0,left,1,1.4778,ST,easy,1
032SSAP,0,left,1,1.3528,ST,easy,2
032SSAP,1,right,1,1.1459,ST,easy,3
032SSAP,0,left,1,1.1548,ST,easy,4
032SSAP,0,left,1,2.1512,ST,easy,5
032SSAP,1,right,1,1.4843,ST,easy,6
032SSAP,0,left,1,1.2678,ST,easy,7
032SSAP,0,left,1,1.32,ST,easy,8
032SSAP,0,left,1,2.5005,ST,easy,9
032SSAP,1,right,1,1.6504,ST,easy,10
032SSAP,1,right,1,1.1289,ST,easy,11
032SSAP,0,left,1,1.1945,ST,easy,12
032SSAP,1,right,1,3.5674,ST,easy,13
032SSAP,1,right,1,1.6892,ST,easy,14
032SSAP,0,left,1,2.8818,ST,easy,15
032SSAP,0,left,1,3.7312,ST,easy,16
032SSAP,0,left,1,3.6792,ST,hard,1
032SSAP,1,left,0,1.4892,ST,hard,2
032SSAP,0,left,1,1.1369,ST,hard,3
032SSAP,0,left,1,1.0176,ST,hard,4
032SSAP,1,right,1,4.773,ST,hard,5
032SSAP,0,left,1,1.3467,ST,hard,6
032SSAP,1,left,0,1.1503,ST,hard,7
032SSAP,0,left,1,0.9149,ST,hard,8
032SSAP,0,left,1,1.0821,ST,hard,9
032SSAP,1,right,1,0.9432,ST,hard,10
032SSAP,1,left,0,1.1367,ST,hard,11
032SSAP,1,left,0,1.9338,ST,hard,12
032SSAP,0,right,0,3.2843,ST,hard,13
032SSAP,1,right,1,1.11,ST,hard,14
032SSAP,1,left,0,1.2474,ST,hard,15
032SSAP,1,left,0,2.937,ST,hard,16
032SSAP,1,right,1,1.4482,ST,medium,1
032SSAP,1,right,1,1.5476,ST,medium,2
032SSAP,0,right,0,1.5506,ST,medium,3
032SSAP,0,left,1,1.1795,ST,medium,4
032SSAP,1,right,1,1.0672,ST,medium,5
032SSAP,0,left,1,2.8965,ST,medium,6
032SSAP,0,right,0,1.2982,ST,medium,7
032SSAP,1,right,1,1.2724,ST,medium,8
032SSAP,0,left,1,2.2795,ST,medium,9
032SSAP,0,left,1,5.438,ST,medium,10
032SSAP,1,right,1,1.2392,ST,medium,11
032SSAP,1,right,1,1.1664,ST,medium,12
032SSAP,1,right,1,1.4501,ST,medium,13
032SSAP,0,left,1,2.5666,ST,medium,14
032SSAP,1,left,0,1.419,ST,medium,15
032SSAP,1,left,0,1.5335,ST,medium,16
033SSML,1,right,1,1.8199,ST,easy,1
033SSML,0,left,1,1.336,ST,easy,2
033SSML,1,right,1,1.7941,ST,easy,3
033SSML,1,right,1,1.621,ST,easy,4
033SSML,1,right,1,1.2288,ST,easy,5
033SSML,1,right,1,1.4341,ST,easy,6
033SSML,1,right,1,1.2697,ST,easy,7
033SSML,0,left,1,1.2438,ST,easy,8
033SSML,0,left,1,1.0268,ST,easy,9
033SSML,0,left,1,1.0118,ST,easy,10
033SSML,1,right,1,0.8609,ST,easy,11
033SSML,1,right,1,1.0249,ST,easy,12
033SSML,1,right,1,1.4651,ST,easy,13
033SSML,0,left,1,1.1899,ST,easy,14
033SSML,0,left,1,1.3867,ST,easy,15
033SSML,0,left,1,1.3902,ST,easy,16
033SSML,0,left,1,1.6366,ST,hard,1
033SSML,0,left,1,1.31,ST,hard,2
033SSML,0,left,1,1.2426,ST,hard,3
033SSML,0,left,1,1.1869,ST,hard,4
033SSML,1,right,1,1.6543,ST,hard,5
033SSML,0,right,0,2.198,ST,hard,6
033SSML,0,left,1,0.8522,ST,hard,7
033SSML,1,right,1,1.7125,ST,hard,8
033SSML,0,right,0,1.6443,ST,hard,9
033SSML,1,right,1,2.5841,ST,hard,10
033SSML,0,right,0,1.2735,ST,hard,11
033SSML,1,right,1,1.3511,ST,hard,12
033SSML,1,right,1,3.4686,ST,hard,13
033SSML,1,right,1,1.1159,ST,hard,14
033SSML,1,left,0,1.1183,ST,hard,15
033SSML,0,left,1,1.2112,ST,hard,16
033SSML,1,left,0,2.638,ST,medium,1
033SSML,1,right,1,2.2865,ST,medium,2
033SSML,1,right,1,2.0348,ST,medium,3
033SSML,1,left,0,1.367,ST,medium,4
033SSML,1,left,0,0.9956,ST,medium,5
033SSML,0,left,1,0.7338,ST,medium,6
033SSML,0,left,1,0.859,ST,medium,7
033SSML,0,left,1,0.8951,ST,medium,8
033SSML,0,left,1,1.0614,ST,medium,9
033SSML,1,right,1,1.5357,ST,medium,10
033SSML,0,left,1,0.9298,ST,medium,11
033SSML,1,left,0,1.3722,ST,medium,12
033SSML,0,left,1,1.0622,ST,medium,13
033SSML,0,left,1,1.2865,ST,medium,14
033SSML,1,right,1,1.2781,ST,medium,15
033SSML,0,left,1,1.0449,ST,medium,16
035SSDD,0,left,1,2.0887,ST,easy,1
035SSDD,0,left,1,1.4706,ST,easy,2
035SSDD,1,right,1,0.5843,ST,easy,3
035SSDD,1,right,1,1.1638,ST,easy,4
035SSDD,0,left,1,1.2811,ST,easy,5
035SSDD,0,left,1,1.106,ST,easy,6
035SSDD,1,right,1,1.0005,ST,easy,7
035SSDD,0,left,1,1.1911,ST,easy,8
035SSDD,0,left,1,1.6818,ST,easy,9
035SSDD,0,left,1,1.122,ST,easy,10
035SSDD,0,left,1,1.1973,ST,easy,11
035SSDD,1,right,1,0.8367,ST,easy,12
035SSDD,0,left,1,0.9578,ST,easy,13
035SSDD,1,right,1,0.7909,ST,easy,14
035SSDD,0,left,1,1.7007,ST,easy,15
035SSDD,1,right,1,0.755,ST,easy,16
035SSDD,0,right,0,1.0645,ST,hard,1
035SSDD,0,left,1,1.4272,ST,hard,2
035SSDD,1,left,0,1.0466,ST,hard,3
035SSDD,1,right,1,0.8186,ST,hard,4
035SSDD,0,right,0,1.9399,ST,hard,5
035SSDD,1,right,1,1.7339,ST,hard,6
035SSDD,1,right,1,1.3902,ST,hard,7
035SSDD,1,right,1,1.0086,ST,hard,8
035SSDD,0,right,0,0.9146,ST,hard,9
035SSDD,1,right,1,1.724,ST,hard,10
035SSDD,1,right,1,1.0539,ST,hard,11
035SSDD,1,right,1,0.9768,ST,hard,12
035SSDD,0,right,0,0.9223,ST,hard,13
035SSDD,1,right,1,0.8514,ST,hard,14
035SSDD,1,left,0,1.8808,ST,hard,15
035SSDD,1,right,1,0.8025,ST,hard,16
035SSDD,0,right,0,3.6021,ST,medium,1
035SSDD,1,right,1,1.1636,ST,medium,2
035SSDD,1,right,1,0.6498,ST,medium,3
035SSDD,0,left,1,1.424,ST,medium,4
035SSDD,1,left,0,0.939,ST,medium,5
035SSDD,0,right,0,1.0737,ST,medium,6
035SSDD,0,left,1,1.3258,ST,medium,7
035SSDD,1,right,1,2.1165,ST,medium,8
035SSDD,1,right,1,1.1721,ST,medium,9
035SSDD,0,left,1,1.2771,ST,medium,10
035SSDD,0,left,1,2.9197,ST,medium,11
035SSDD,0,right,0,1.0071,ST,medium,12
035SSDD,1,left,0,1.4029,ST,medium,13
035SSDD,0,right,0,0.9206,ST,medium,14
035SSDD,0,left,1,1.056,ST,medium,15
035SSDD,0,left,1,2.3642,ST,medium,16
037ARDL,0,left,1,1.0118,ST,easy,1
037ARDL,1,right,1,1.9103,ST,easy,2
037ARDL,1,right,1,1.4266,ST,easy,3
037ARDL,0,left,1,1.2161,ST,easy,4
037ARDL,1,right,1,0.9388,ST,easy,5
037ARDL,1,right,1,0.9366,ST,easy,6
037ARDL,1,right,1,0.987,ST,easy,7
037ARDL,1,right,1,1.391,ST,easy,8
037ARDL,0,left,1,1.1378,ST,easy,9
037ARDL,1,right,1,1.7367,ST,easy,10
037ARDL,1,right,1,1.325,ST,easy,11
037ARDL,1,right,1,0.7129,ST,easy,12
037ARDL,0,left,1,1.0975,ST,easy,13
037ARDL,1,right,1,1.1413,ST,easy,14
037ARDL,1,right,1,0.9535,ST,easy,15
037ARDL,1,right,1,1.014,ST,easy,16
037ARDL,0,left,1,4.4437,ST,hard,1
037ARDL,1,left,0,1.0862,ST,hard,2
037ARDL,0,left,1,1.4103,ST,hard,3
037ARDL,1,left,0,2.9013,ST,hard,4
037ARDL,0,right,0,1.452,ST,hard,5
037ARDL,1,right,1,1.5038,ST,hard,6
037ARDL,1,left,0,2.5323,ST,hard,7
037ARDL,1,right,1,1.1419,ST,hard,8
037ARDL,1,left,0,1.4513,ST,hard,9
037ARDL,1,right,1,2.0526,ST,hard,10
037ARDL,0,left,1,1.0565,ST,hard,11
037ARDL,1,left,0,0.9308,ST,hard,12
037ARDL,0,left,1,1.3921,ST,hard,13
037ARDL,1,right,1,1.2306,ST,hard,14
037ARDL,1,right,1,1.0889,ST,hard,15
037ARDL,0,left,1,2.06,ST,hard,16
037ARDL,1,right,1,1.5153,ST,medium,1
037ARDL,0,right,0,1.926,ST,medium,2
037ARDL,0,left,1,1.031,ST,medium,3
037ARDL,1,left,0,0.9972,ST,medium,4
037ARDL,1,right,1,2.2202,ST,medium,5
037ARDL,0,left,1,0.9577,ST,medium,6
037ARDL,0,left,1,1.6135,ST,medium,7
037ARDL,0,left,1,1.1604,ST,medium,8
037ARDL,1,right,1,1.3973,ST,medium,9
037ARDL,1,right,1,4.2297,ST,medium,10
037ARDL,0,left,1,2.2213,ST,medium,11
037ARDL,1,right,1,1.2928,ST,medium,12
037ARDL,1,left,0,1.5231,ST,medium,13
037ARDL,0,left,1,0.964,ST,medium,14
037ARDL,1,left,0,5.0925,ST,medium,15
037ARDL,0,left,1,1.168,ST,medium,16
038AREN,0,left,1,0.9693,ST,easy,1
038AREN,1,right,1,0.9413,ST,easy,2
038AREN,0,left,1,0.8868,ST,easy,3
038AREN,0,left,1,1.2521,ST,easy,4
038AREN,1,right,1,0.6939,ST,easy,5
038AREN,1,right,1,0.6267,ST,easy,6
038AREN,0,left,1,0.7218,ST,easy,7
038AREN,0,left,1,0.6607,ST,easy,8
038AREN,1,right,1,0.7946,ST,easy,9
038AREN,1,right,1,0.6835,ST,easy,10
038AREN,0,left,1,0.7303,ST,easy,11
038AREN,1,right,1,0.9107,ST,easy,12
038AREN,1,right,1,0.7451,ST,easy,13
038AREN,1,right,1,0.661,ST,easy,14
038AREN,1,right,1,0.6173,ST,easy,15
038AREN,0,left,1,0.7606,ST,easy,16
038AREN,1,right,1,1.1295,ST,hard,1
038AREN,0,left,1,5.2715,ST,hard,2
038AREN,0,left,1,0.8997,ST,hard,3
038AREN,1,right,1,0.836,ST,hard,4
038AREN,1,left,0,0.7008,ST,hard,5
038AREN,1,right,1,1.1441,ST,hard,6
038AREN,1,right,1,0.6985,ST,hard,7
038AREN,1,right,1,0.583,ST,hard,8
038AREN,1,right,1,0.3941,ST,hard,9
038AREN,1,right,1,0.666,ST,hard,10
038AREN,0,left,1,0.8275,ST,hard,11
038AREN,0,left,1,0.6991,ST,hard,12
038AREN,0,left,1,0.7679,ST,hard,13
038AREN,0,left,1,1.2485,ST,hard,14
038AREN,1,left,0,1.1564,ST,hard,15
038AREN,0,right,0,1.6971,ST,hard,16
038AREN,1,left,0,0.6653,ST,medium,1
038AREN,0,left,1,0.5842,ST,medium,2
038AREN,1,right,1,0.9402,ST,medium,3
038AREN,0,left,1,0.9835,ST,medium,4
038AREN,0,left,1,0.8445,ST,medium,5
038AREN,1,right,1,0.5946,ST,medium,6
038AREN,1,left,0,0.5687,ST,medium,7
038AREN,1,left,0,0.0486,ST,medium,8
038AREN,0,left,1,0.7134,ST,medium,9
038AREN,0,left,1,1.6314,ST,medium,10
038AREN,0,left,1,0.6707,ST,medium,11
038AREN,0,left,1,0.7153,ST,medium,12
038AREN,1,right,1,0.5521,ST,medium,13
038AREN,1,left,0,0.6192,ST,medium,14
038AREN,1,right,1,0.6688,ST,medium,15
038AREN,0,left,1,1.5607,ST,medium,16
039ARVP,0,left,1,3.916,ST,easy,1
039ARVP,1,right,1,1.5116,ST,easy,2
039ARVP,0,left,1,1.3354,ST,easy,3
039ARVP,1,right,1,1.5404,ST,easy,4
039ARVP,1,right,1,1.1447,ST,easy,5
039ARVP,1,right,1,0.8353,ST,easy,6
039ARVP,1,right,1,0.7891,ST,easy,7
039ARVP,0,left,1,1.1653,ST,easy,8
039ARVP,0,left,1,1.5402,ST,easy,9
039ARVP,1,right,1,0.8825,ST,easy,10
039ARVP,0,left,1,1.4201,ST,easy,11
039ARVP,0,left,1,1.0813,ST,easy,12
039ARVP,1,right,1,1.1367,ST,easy,13
039ARVP,1,right,1,0.9289,ST,easy,14
039ARVP,0,left,1,1.1357,ST,easy,15
039ARVP,1,right,1,0.9427,ST,easy,16
039ARVP,1,right,1,0.9755,ST,hard,1
039ARVP,1,right,1,0.7771,ST,hard,2
039ARVP,0,left,1,0.8729,ST,hard,3
039ARVP,0,left,1,1.212,ST,hard,4
039ARVP,1,right,1,0.9274,ST,hard,5
039ARVP,0,right,0,1.0244,ST,hard,6
039ARVP,1,right,1,1.1866,ST,hard,7
039ARVP,0,left,1,1.3228,ST,hard,8
039ARVP,0,left,1,1.0738,ST,hard,9
039ARVP,1,right,1,0.7522,ST,hard,10
039ARVP,0,right,0,0.834,ST,hard,11
039ARVP,1,right,1,0.8538,ST,hard,12
039ARVP,1,right,1,0.5608,ST,hard,13
039ARVP,0,left,1,1.1023,ST,hard,14
039ARVP,0,left,1,1.0605,ST,hard,15
039ARVP,1,right,1,0.5654,ST,hard,16
039ARVP,0,left,1,1.099,ST,medium,1
039ARVP,0,left,1,0.9359,ST,medium,2
039ARVP,1,left,0,0.939,ST,medium,3
039ARVP,1,right,1,0.9778,ST,medium,4
039ARVP,0,left,1,0.9178,ST,medium,5
039ARVP,0,left,1,0.8943,ST,medium,6
039ARVP,1,right,1,0.9624,ST,medium,7
039ARVP,0,left,1,1.019,ST,medium,8
039ARVP,0,left,1,1.3112,ST,medium,9
039ARVP,0,left,1,1.1234,ST,medium,10
039ARVP,1,right,1,0.8725,ST,medium,11
039ARVP,1,right,1,0.7609,ST,medium,12
039ARVP,0,left,1,1.4566,ST,medium,13
039ARVP,1,right,1,1.3956,ST,medium,14
039ARVP,0,left,1,1.3237,ST,medium,15
039ARVP,1,right,1,0.936,ST,medium,16
042SSAA,1,right,1,1.0167,ST,easy,1
042SSAA,1,right,1,0.8013,ST,easy,2
042SSAA,1,right,1,0.9551,ST,easy,3
042SSAA,0,left,1,0.7852,ST,easy,4
042SSAA,1,right,1,0.802,ST,easy,5
042SSAA,1,right,1,0.7667,ST,easy,6
042SSAA,0,left,1,0.8994,ST,easy,7
042SSAA,1,right,1,1.0867,ST,easy,8
042SSAA,0,left,1,0.935,ST,easy,9
042SSAA,1,right,1,1,ST,easy,10
042SSAA,1,right,1,1.0403,ST,easy,11
042SSAA,0,left,1,0.7984,ST,easy,12
042SSAA,0,left,1,0.6739,ST,easy,13
042SSAA,1,right,1,0.8514,ST,easy,14
042SSAA,0,left,1,0.9677,ST,easy,15
042SSAA,0,left,1,0.8486,ST,easy,16
042SSAA,1,right,1,1.2009,ST,hard,1
042SSAA,0,left,1,1.4264,ST,hard,2
042SSAA,1,right,1,1.0589,ST,hard,3
042SSAA,0,left,1,0.7009,ST,hard,4
042SSAA,0,left,1,0.8695,ST,hard,5
042SSAA,1,right,1,1.3186,ST,hard,6
042SSAA,0,left,1,0.7885,ST,hard,7
042SSAA,1,left,0,1.4353,ST,hard,8
042SSAA,1,left,0,1.8032,ST,hard,9
042SSAA,0,right,0,1.4202,ST,hard,10
042SSAA,1,right,1,0.9181,ST,hard,11
042SSAA,1,right,1,1.1354,ST,hard,12
042SSAA,1,left,0,0.9881,ST,hard,13
042SSAA,1,left,0,1.6366,ST,hard,14
042SSAA,0,right,0,0.8224,ST,hard,15
042SSAA,1,left,0,0.7867,ST,hard,16
042SSAA,0,right,0,1.3002,ST,medium,1
042SSAA,0,left,1,1.0856,ST,medium,2
042SSAA,0,left,1,0.6894,ST,medium,3
042SSAA,1,right,1,1.1108,ST,medium,4
042SSAA,1,left,0,1.4563,ST,medium,5
042SSAA,0,left,1,0.9356,ST,medium,6
042SSAA,0,right,0,0.9681,ST,medium,7
042SSAA,0,left,1,1.2601,ST,medium,8
042SSAA,0,left,1,1.0197,ST,medium,9
042SSAA,0,left,1,0.8851,ST,medium,10
042SSAA,0,left,1,0.9345,ST,medium,11
042SSAA,1,left,0,0.9187,ST,medium,12
042SSAA,1,right,1,0.9352,ST,medium,13
042SSAA,0,left,1,1.0578,ST,medium,14
042SSAA,0,left,1,12.8304,ST,medium,15
042SSAA,0,left,1,1.0698,ST,medium,16
045SSEM,1,right,1,1.6021,ST,easy,1
045SSEM,0,left,1,0.9896,ST,easy,2
045SSEM,0,left,1,0.934,ST,easy,3
045SSEM,1,right,1,1.4161,ST,easy,4
045SSEM,0,left,1,1.0363,ST,easy,5
045SSEM,1,right,1,0.9878,ST,easy,6
045SSEM,1,right,1,2.5639,ST,easy,7
045SSEM,1,right,1,1.1609,ST,easy,8
045SSEM,0,left,1,1.7773,ST,easy,9
045SSEM,1,right,1,1.2582,ST,easy,10
045SSEM,1,right,1,1.4668,ST,easy,11
045SSEM,0,left,1,1.262,ST,easy,12
045SSEM,1,right,1,1.1618,ST,easy,13
045SSEM,1,right,1,1.1134,ST,easy,14
045SSEM,0,left,1,1.0984,ST,easy,15
045SSEM,1,right,1,1.1107,ST,easy,16
045SSEM,0,left,1,1.5445,ST,hard,1
045SSEM,1,left,0,1.6571,ST,hard,2
045SSEM,1,right,1,1.6499,ST,hard,3
045SSEM,1,left,0,1.6491,ST,hard,4
045SSEM,0,right,0,1.5553,ST,hard,5
045SSEM,1,right,1,1.3832,ST,hard,6
045SSEM,0,left,1,1.436,ST,hard,7
045SSEM,0,left,1,1.4137,ST,hard,8
045SSEM,0,left,1,1.6252,ST,hard,9
045SSEM,1,left,0,1.244,ST,hard,10
045SSEM,1,right,1,1.2661,ST,hard,11
045SSEM,0,left,1,1.5784,ST,hard,12
045SSEM,1,right,1,1.5012,ST,hard,13
045SSEM,0,left,1,1.2763,ST,hard,14
045SSEM,0,left,1,1.174,ST,hard,15
045SSEM,1,left,0,1.0341,ST,hard,16
045SSEM,1,right,1,1.3639,ST,medium,1
045SSEM,0,left,1,1.4413,ST,medium,2
045SSEM,0,left,1,1.2653,ST,medium,3
045SSEM,1,left,0,1.2658,ST,medium,4
045SSEM,1,right,1,1.3916,ST,medium,5
045SSEM,0,left,1,1.4094,ST,medium,6
045SSEM,0,right,0,1.6378,ST,medium,7
045SSEM,0,left,1,1.2283,ST,medium,8
045SSEM,1,right,1,1.7322,ST,medium,9
045SSEM,1,left,0,1.275,ST,medium,10
045SSEM,1,left,0,1.9172,ST,medium,11
045SSEM,0,right,0,1.2923,ST,medium,12
045SSEM,0,left,1,1.3841,ST,medium,13
045SSEM,0,left,1,1.1486,ST,medium,14
045SSEM,1,right,1,1.2264,ST,medium,15
045SSEM,1,right,1,1.5992,ST,medium,16
046SSVS,0,left,1,1.645,ST,easy,1
046SSVS,1,right,1,1.988,ST,easy,2
046SSVS,0,left,1,2.279,ST,easy,3
046SSVS,0,left,1,1.469,ST,easy,4
046SSVS,0,left,1,1.149,ST,easy,5
046SSVS,0,left,1,1.181,ST,easy,6
046SSVS,1,right,1,1.506,ST,easy,7
046SSVS,0,left,1,1.294,ST,easy,8
046SSVS,1,right,1,1.404,ST,easy,9
046SSVS,0,left,1,1.335,ST,easy,10
046SSVS,0,left,1,1.151,ST,easy,11
046SSVS,1,right,1,2.02,ST,easy,12
046SSVS,1,right,1,0.987,ST,easy,13
046SSVS,0,left,1,0.897,ST,easy,14
046SSVS,1,right,1,1.12,ST,easy,15
046SSVS,1,left,0,0.917,ST,easy,16
046SSVS,1,right,1,3.2,ST,hard,1
046SSVS,1,left,0,1.512,ST,hard,2
046SSVS,0,right,0,1.128,ST,hard,3
046SSVS,0,left,1,1.334,ST,hard,4
046SSVS,1,left,0,1.079,ST,hard,5
046SSVS,0,right,0,0.962,ST,hard,6
046SSVS,0,left,1,1.635,ST,hard,7
046SSVS,1,left,0,1.872,ST,hard,8
046SSVS,0,left,1,2.055,ST,hard,9
046SSVS,0,right,0,4.468,ST,hard,10
046SSVS,0,left,1,1.256,ST,hard,11
046SSVS,1,left,0,0.8,ST,hard,12
046SSVS,1,left,0,0.419,ST,hard,13
046SSVS,1,left,0,1.039,ST,hard,14
046SSVS,0,right,0,0.963,ST,hard,15
046SSVS,1,left,0,0.705,ST,hard,16
046SSVS,0,left,1,2.181,ST,medium,1
046SSVS,0,left,1,1.354,ST,medium,2
046SSVS,0,left,1,1.941,ST,medium,3
046SSVS,1,right,1,0.752,ST,medium,4
046SSVS,0,right,0,1.229,ST,medium,5
046SSVS,1,left,0,1.073,ST,medium,6
046SSVS,0,right,0,3.485,ST,medium,7
046SSVS,0,left,1,0.845,ST,medium,8
046SSVS,0,left,1,1.032,ST,medium,9
046SSVS,0,left,1,2.334,ST,medium,10
046SSVS,1,left,0,0.919,ST,medium,11
046SSVS,1,right,1,0.937,ST,medium,12
046SSVS,1,left,0,0.786,ST,medium,13
046SSVS,0,left,1,0.806,ST,medium,14
046SSVS,0,right,0,1.037,ST,medium,15
046SSVS,1,left,0,1.563,ST,medium,16
047SSAK,1,right,1,1.6946,ST,easy,1
047SSAK,1,right,1,0.9808,ST,easy,2
047SSAK,0,left,1,1.2816,ST,easy,3
047SSAK,1,right,1,1.5778,ST,easy,4
047SSAK,1,right,1,1.4476,ST,easy,5
047SSAK,0,left,1,1.2627,ST,easy,6
047SSAK,0,left,1,1.2986,ST,easy,7
047SSAK,1,right,1,1.4137,ST,easy,8
047SSAK,1,right,1,1.7445,ST,easy,9
047SSAK,1,right,1,1.8471,ST,easy,10
047SSAK,0,left,1,1.6843,ST,easy,11
047SSAK,1,right,1,1.4505,ST,easy,12
047SSAK,1,right,1,1.7641,ST,easy,13
047SSAK,0,left,1,1.3792,ST,easy,14
047SSAK,0,left,1,1.3695,ST,easy,15
047SSAK,0,left,1,1.6267,ST,easy,16
047SSAK,1,left,0,4.3186,ST,hard,1
047SSAK,1,right,1,2.0683,ST,hard,2
047SSAK,1,right,1,2.0985,ST,hard,3
047SSAK,0,left,1,1.6805,ST,hard,4
047SSAK,1,right,1,1.9521,ST,hard,5
047SSAK,0,left,1,2.6983,ST,hard,6
047SSAK,0,right,0,2.4579,ST,hard,7
047SSAK,0,right,0,2.0863,ST,hard,8
047SSAK,0,left,1,3.1375,ST,hard,9
047SSAK,0,left,1,1.8831,ST,hard,10
047SSAK,0,left,1,2.4156,ST,hard,11
047SSAK,0,left,1,2.2119,ST,hard,12
047SSAK,0,right,0,2.3175,ST,hard,13
047SSAK,1,right,1,1.8867,ST,hard,14
047SSAK,0,left,1,2.1645,ST,hard,15
047SSAK,0,left,1,5.6787,ST,hard,16
047SSAK,0,left,1,2.6619,ST,medium,1
047SSAK,0,left,1,2.3973,ST,medium,2
047SSAK,1,right,1,1.6835,ST,medium,3
047SSAK,0,left,1,2.3192,ST,medium,4
047SSAK,1,right,1,2.5306,ST,medium,5
047SSAK,1,right,1,1.4362,ST,medium,6
047SSAK,0,left,1,1.7042,ST,medium,7
047SSAK,1,right,1,1.2072,ST,medium,8
047SSAK,0,left,1,1.3382,ST,medium,9
047SSAK,0,left,1,2.3018,ST,medium,10
047SSAK,0,left,1,1.7405,ST,medium,11
047SSAK,0,left,1,1.8137,ST,medium,12
047SSAK,0,left,1,1.9634,ST,medium,13
047SSAK,0,left,1,1.5108,ST,medium,14
047SSAK,0,left,1,4.0777,ST,medium,15
047SSAK,1,right,1,1.5642,ST,medium,16
048SSAG,1,right,1,1.52,ST,easy,1
048SSAG,1,right,1,1.147,ST,easy,2
048SSAG,1,right,1,1.01,ST,easy,3
048SSAG,0,left,1,0.791,ST,easy,4
048SSAG,1,right,1,0.58,ST,easy,5
048SSAG,0,left,1,0.777,ST,easy,6
048SSAG,0,left,1,1.224,ST,easy,7
048SSAG,0,left,1,0.664,ST,easy,8
048SSAG,0,left,1,0.675,ST,easy,9
048SSAG,0,left,1,2.742,ST,easy,10
048SSAG,0,left,1,0.791,ST,easy,11
048SSAG,0,left,1,0.781,ST,easy,12
048SSAG,1,right,1,2.49,ST,easy,13
048SSAG,0,left,1,0.806,ST,easy,14
048SSAG,1,right,1,0.816,ST,easy,15
048SSAG,0,left,1,0.989,ST,easy,16
048SSAG,0,left,1,3.457,ST,hard,1
048SSAG,0,left,1,1.393,ST,hard,2
048SSAG,1,right,1,1.105,ST,hard,3
048SSAG,0,left,1,1.197,ST,hard,4
048SSAG,1,left,0,2.781,ST,hard,5
048SSAG,0,right,0,2.482,ST,hard,6
048SSAG,0,right,0,1.206,ST,hard,7
048SSAG,0,left,1,1.667,ST,hard,8
048SSAG,1,left,0,0.999,ST,hard,9
048SSAG,0,right,0,1.658,ST,hard,10
048SSAG,0,right,0,3.066,ST,hard,11
048SSAG,0,left,1,1.515,ST,hard,12
048SSAG,1,right,1,2.315,ST,hard,13
048SSAG,1,left,0,1.943,ST,hard,14
048SSAG,1,right,1,2.31,ST,hard,15
048SSAG,1,right,1,1.124,ST,hard,16
048SSAG,1,right,1,2.174,ST,medium,1
048SSAG,0,left,1,1.357,ST,medium,2
048SSAG,0,left,1,1.748,ST,medium,3
048SSAG,1,right,1,1.038,ST,medium,4
048SSAG,0,left,1,0.933,ST,medium,5
048SSAG,1,right,1,1.098,ST,medium,6
048SSAG,1,right,1,1.397,ST,medium,7
048SSAG,0,right,0,1.908,ST,medium,8
048SSAG,1,right,1,1.392,ST,medium,9
048SSAG,0,left,1,1.501,ST,medium,10
048SSAG,1,right,1,1.214,ST,medium,11
048SSAG,1,right,1,1.554,ST,medium,12
048SSAG,1,left,0,1.137,ST,medium,13
048SSAG,0,left,1,1.156,ST,medium,14
048SSAG,0,left,1,0.808,ST,medium,15
048SSAG,1,left,0,0.856,ST,medium,16
052SSME,0,left,1,1.8349,ST,easy,1
052SSME,0,left,1,0.8333,ST,easy,2
052SSME,1,right,1,1.1995,ST,easy,3
052SSME,1,right,1,1.1002,ST,easy,4
052SSME,1,right,1,1.5917,ST,easy,5
052SSME,0,right,0,1.0664,ST,easy,6
052SSME,1,right,1,1.2145,ST,easy,7
052SSME,1,right,1,1.2413,ST,easy,8
052SSME,1,right,1,1.4499,ST,easy,9
052SSME,1,right,1,1.2118,ST,easy,10
052SSME,1,right,1,1.4544,ST,easy,11
052SSME,1,right,1,1.3153,ST,easy,12
052SSME,1,right,1,1.2153,ST,easy,13
052SSME,0,left,1,1.4001,ST,easy,14
052SSME,0,left,1,1.1842,ST,easy,15
052SSME,1,right,1,1.4258,ST,easy,16
052SSME,1,left,0,1.4447,ST,hard,1
052SSME,0,left,1,1.5333,ST,hard,2
052SSME,0,right,0,1.5706,ST,hard,3
052SSME,0,left,1,1.3137,ST,hard,4
052SSME,0,left,1,1.3405,ST,hard,5
052SSME,0,left,1,2.3551,ST,hard,6
052SSME,1,left,0,1.6892,ST,hard,7
052SSME,0,left,1,3.1994,ST,hard,8
052SSME,0,left,1,3.6229,ST,hard,9
052SSME,0,left,1,2.7732,ST,hard,10
052SSME,0,right,0,2.3347,ST,hard,11
052SSME,1,right,1,1.7378,ST,hard,12
052SSME,1,left,0,1.4065,ST,hard,13
052SSME,1,left,0,1.2255,ST,hard,14
052SSME,0,left,1,1.291,ST,hard,15
052SSME,1,right,1,2.0696,ST,hard,16
052SSME,0,left,1,2.8783,ST,medium,1
052SSME,1,right,1,2.232,ST,medium,2
052SSME,1,right,1,1.791,ST,medium,3
052SSME,1,right,1,1.3581,ST,medium,4
052SSME,1,right,1,3.2534,ST,medium,5
052SSME,1,right,1,1.5427,ST,medium,6
052SSME,1,right,1,1.5418,ST,medium,7
052SSME,0,left,1,2.7375,ST,medium,8
052SSME,0,left,1,1.5816,ST,medium,9
052SSME,1,right,1,1.3169,ST,medium,10
052SSME,0,left,1,1.4475,ST,medium,11
052SSME,0,left,1,3.6382,ST,medium,12
052SSME,1,left,0,2.4149,ST,medium,13
052SSME,0,left,1,1.5511,ST,medium,14
052SSME,1,left,0,3.7128,ST,medium,15
052SSME,1,right,1,2.542,ST,medium,16
053SSAF,1,right,1,0.9949,ST,easy,1
053SSAF,0,left,1,0.9516,ST,easy,2
053SSAF,1,right,1,0.9834,ST,easy,3
053SSAF,0,left,1,0.9043,ST,easy,4
053SSAF,0,left,1,1.2347,ST,easy,5
053SSAF,0,left,1,1.1473,ST,easy,6
053SSAF,0,left,1,1.0907,ST,easy,7
053SSAF,1,left,0,1.3789,ST,easy,8
053SSAF,0,left,1,0.7325,ST,easy,9
053SSAF,0,left,1,0.7869,ST,easy,10
053SSAF,0,left,1,0.7026,ST,easy,11
053SSAF,1,right,1,0.8508,ST,easy,12
053SSAF,1,right,1,0.7873,ST,easy,13
053SSAF,1,right,1,0.9731,ST,easy,14
053SSAF,0,left,1,0.8727,ST,easy,15
053SSAF,1,right,1,1.1967,ST,easy,16
053SSAF,1,left,0,1.8757,ST,hard,1
053SSAF,0,left,1,1.2807,ST,hard,2
053SSAF,0,left,1,1.0731,ST,hard,3
053SSAF,0,left,1,0.955,ST,hard,4
053SSAF,1,left,0,1.2544,ST,hard,5
053SSAF,1,right,1,2.0979,ST,hard,6
053SSAF,1,left,0,1.2392,ST,hard,7
053SSAF,1,right,1,0.838,ST,hard,8
053SSAF,1,left,0,1.0942,ST,hard,9
053SSAF,0,left,1,0.3383,ST,hard,10
053SSAF,0,left,1,0.8961,ST,hard,11
053SSAF,0,left,1,0.9162,ST,hard,12
053SSAF,1,left,0,1.1113,ST,hard,13
053SSAF,0,left,1,2.7615,ST,hard,14
053SSAF,1,right,1,1.0792,ST,hard,15
053SSAF,0,left,1,2.4016,ST,hard,16
053SSAF,1,right,1,0.9728,ST,medium,1
053SSAF,0,right,0,0.8655,ST,medium,2
053SSAF,0,left,1,0.7535,ST,medium,3
053SSAF,1,right,1,2.1812,ST,medium,4
053SSAF,1,left,0,0.8198,ST,medium,5
053SSAF,0,left,1,0.8684,ST,medium,6
053SSAF,1,left,0,3.2129,ST,medium,7
053SSAF,0,left,1,1.4285,ST,medium,8
053SSAF,1,right,1,0.8636,ST,medium,9
053SSAF,1,right,1,0.7662,ST,medium,10
053SSAF,0,right,0,0.9628,ST,medium,11
053SSAF,1,right,1,0.849,ST,medium,12
053SSAF,1,left,0,1.254,ST,medium,13
053SSAF,0,left,1,1.082,ST,medium,14
053SSAF,1,right,1,0.9814,ST,medium,15
053SSAF,1,right,1,0.7554,ST,medium,16
054SSEB,0,left,1,1.3384,ST,easy,1
054SSEB,1,right,1,1.0424,ST,easy,2
054SSEB,1,right,1,1.6163,ST,easy,3
054SSEB,1,right,1,1.6816,ST,easy,4
054SSEB,1,right,1,1.3994,ST,easy,5
054SSEB,0,left,1,1.7022,ST,easy,6
054SSEB,1,right,1,1.3997,ST,easy,7
054SSEB,0,left,1,1.6161,ST,easy,8
054SSEB,0,left,1,1.3513,ST,easy,9
054SSEB,0,left,1,0.8826,ST,easy,10
054SSEB,1,right,1,1.3154,ST,easy,11
054SSEB,1,right,1,1.6327,ST,easy,12
054SSEB,1,right,1,1.337,ST,easy,13
054SSEB,0,left,1,0.9581,ST,easy,14
054SSEB,0,left,1,0.7155,ST,easy,15
054SSEB,0,left,1,1.2691,ST,easy,16
054SSEB,1,left,0,1.5561,ST,hard,1
054SSEB,0,left,1,1.358,ST,hard,2
054SSEB,0,left,1,1.2747,ST,hard,3
054SSEB,1,right,1,1.3765,ST,hard,4
054SSEB,0,left,1,1.0042,ST,hard,5
054SSEB,0,left,1,1.3239,ST,hard,6
054SSEB,1,left,0,1.2362,ST,hard,7
054SSEB,0,left,1,1.2739,ST,hard,8
054SSEB,0,left,1,1.3153,ST,hard,9
054SSEB,0,left,1,1.6692,ST,hard,10
054SSEB,0,left,1,1.2587,ST,hard,11
054SSEB,0,left,1,1.3529,ST,hard,12
054SSEB,1,right,1,1.2929,ST,hard,13
054SSEB,1,right,1,1.6977,ST,hard,14
054SSEB,0,left,1,1.1869,ST,hard,15
054SSEB,1,right,1,1.2971,ST,hard,16
054SSEB,1,right,1,2.1375,ST,medium,1
054SSEB,1,right,1,1.8807,ST,medium,2
054SSEB,0,left,1,1.5209,ST,medium,3
054SSEB,1,left,0,1.3936,ST,medium,4
054SSEB,1,left,0,4.5049,ST,medium,5
054SSEB,0,left,1,1.971,ST,medium,6
054SSEB,0,left,1,1.5756,ST,medium,7
054SSEB,1,right,1,1.5749,ST,medium,8
054SSEB,0,left,1,1.5318,ST,medium,9
054SSEB,1,left,0,3.2658,ST,medium,10
054SSEB,0,left,1,1.4648,ST,medium,11
054SSEB,1,right,1,1.6013,ST,medium,12
054SSEB,0,left,1,1.4475,ST,medium,13
054SSEB,1,right,1,1.5139,ST,medium,14
054SSEB,1,right,1,1.6908,ST,medium,15
054SSEB,1,right,1,1.6322,ST,medium,16
055SSNS,1,right,1,0.8751,ST,easy,1
055SSNS,1,right,1,0.9103,ST,easy,2
055SSNS,1,right,1,0.851,ST,easy,3
055SSNS,1,right,1,1.0018,ST,easy,4
055SSNS,0,left,1,1.2837,ST,easy,5
055SSNS,1,right,1,0.7674,ST,easy,6
055SSNS,0,left,1,0.818,ST,easy,7
055SSNS,0,left,1,0.6379,ST,easy,8
055SSNS,0,left,1,0.7342,ST,easy,9
055SSNS,0,left,1,1.8884,ST,easy,10
055SSNS,1,right,1,0.6204,ST,easy,11
055SSNS,1,right,1,0.9025,ST,easy,12
055SSNS,0,left,1,0.7033,ST,easy,13
055SSNS,0,left,1,0.7985,ST,easy,14
055SSNS,1,right,1,1.6027,ST,easy,15
055SSNS,1,right,1,0.7676,ST,easy,16
055SSNS,1,left,0,1.6159,ST,hard,1
055SSNS,1,right,1,0.7981,ST,hard,2
055SSNS,0,left,1,2.9661,ST,hard,3
055SSNS,0,left,1,1.1176,ST,hard,4
055SSNS,1,right,1,1.2404,ST,hard,5
055SSNS,0,left,1,1.2406,ST,hard,6
055SSNS,0,left,1,1.0519,ST,hard,7
055SSNS,0,left,1,1.8724,ST,hard,8
055SSNS,1,right,1,0.7189,ST,hard,9
055SSNS,0,left,1,0.7992,ST,hard,10
055SSNS,1,left,0,2.1876,ST,hard,11
055SSNS,1,right,1,0.972,ST,hard,12
055SSNS,0,left,1,2.072,ST,hard,13
055SSNS,1,right,1,1.0747,ST,hard,14
055SSNS,0,right,0,0.915,ST,hard,15
055SSNS,0,left,1,2.4648,ST,hard,16
055SSNS,0,left,1,1.1501,ST,medium,1
055SSNS,0,right,0,0.9263,ST,medium,2
055SSNS,0,left,1,2.0177,ST,medium,3
055SSNS,1,right,1,1.1896,ST,medium,4
055SSNS,0,left,1,1.2503,ST,medium,5
055SSNS,0,left,1,2.7851,ST,medium,6
055SSNS,1,right,1,1.0249,ST,medium,7
055SSNS,1,right,1,0.9006,ST,medium,8
055SSNS,0,left,1,1.1576,ST,medium,9
055SSNS,0,left,1,1.3014,ST,medium,10
055SSNS,1,right,1,1.0224,ST,medium,11
055SSNS,1,right,1,0.9342,ST,medium,12
055SSNS,0,left,1,1.1511,ST,medium,13
055SSNS,1,right,1,0.9343,ST,medium,14
055SSNS,1,right,1,2.4175,ST,medium,15
055SSNS,1,right,1,1.6841,ST,medium,16
056SSKA,0,left,1,1.261,ST,easy,1
056SSKA,0,left,1,1.0687,ST,easy,2
056SSKA,0,left,1,1.1847,ST,easy,3
056SSKA,1,right,1,0.9523,ST,easy,4
056SSKA,1,left,0,0.9053,ST,easy,5
056SSKA,0,left,1,1.1512,ST,easy,6
056SSKA,1,right,1,1.0658,ST,easy,7
056SSKA,0,left,1,1.0362,ST,easy,8
056SSKA,1,right,1,2.8334,ST,easy,9
056SSKA,1,right,1,1.3829,ST,easy,10
056SSKA,0,left,1,1.4336,ST,easy,11
056SSKA,0,left,1,2.5204,ST,easy,12
056SSKA,0,left,1,1.1032,ST,easy,13
056SSKA,0,right,0,2.1222,ST,easy,14
056SSKA,0,left,1,1.8166,ST,easy,15
056SSKA,1,right,1,1.4867,ST,easy,16
056SSKA,1,left,0,2.1777,ST,hard,1
056SSKA,0,left,1,1.1862,ST,hard,2
056SSKA,1,right,1,1.7556,ST,hard,3
056SSKA,0,left,1,1.1371,ST,hard,4
056SSKA,0,left,1,1.0502,ST,hard,5
056SSKA,0,left,1,1.5503,ST,hard,6
056SSKA,0,left,1,1.0974,ST,hard,7
056SSKA,1,right,1,1.378,ST,hard,8
056SSKA,0,left,1,1.1045,ST,hard,9
056SSKA,1,left,0,0.9197,ST,hard,10
056SSKA,1,right,1,1.1317,ST,hard,11
056SSKA,0,left,1,1.0218,ST,hard,12
056SSKA,0,left,1,0.8546,ST,hard,13
056SSKA,0,left,1,0.7683,ST,hard,14
056SSKA,0,left,1,1.2909,ST,hard,15
056SSKA,1,right,1,1.0351,ST,hard,16
056SSKA,1,right,1,1.4709,ST,medium,1
056SSKA,0,left,1,1.4348,ST,medium,2
056SSKA,1,right,1,1.1854,ST,medium,3
056SSKA,0,left,1,1.309,ST,medium,4
056SSKA,0,right,0,1.0892,ST,medium,5
056SSKA,0,right,0,1.0633,ST,medium,6
056SSKA,0,left,1,1.0561,ST,medium,7
056SSKA,0,left,1,1.0844,ST,medium,8
056SSKA,1,right,1,0.8226,ST,medium,9
056SSKA,1,left,0,0.8311,ST,medium,10
056SSKA,1,right,1,0.9145,ST,medium,11
056SSKA,0,left,1,0.6826,ST,medium,12
056SSKA,0,left,1,1.4849,ST,medium,13
056SSKA,1,right,1,0.9296,ST,medium,14
056SSKA,1,left,0,1.2137,ST,medium,15
056SSKA,1,right,1,0.8968,ST,medium,16
058SSAB,0,left,1,1.005900001,ST,easy,1
058SSAB,0,left,1,0.9183,ST,easy,2
058SSAB,1,right,1,0.9015,ST,easy,3
058SSAB,1,right,1,1.1015,ST,easy,4
058SSAB,0,left,1,0.868,ST,easy,5
058SSAB,1,right,1,0.9928,ST,easy,6
058SSAB,0,left,1,0.807,ST,easy,7
058SSAB,1,right,1,0.8012,ST,easy,8
058SSAB,1,right,1,1.035,ST,easy,9
058SSAB,1,right,1,0.9209,ST,easy,10
058SSAB,0,left,1,0.8868,ST,easy,11
058SSAB,0,left,1,1.0013,ST,easy,12
058SSAB,1,right,1,0.9377,ST,easy,13
058SSAB,0,left,1,0.8602,ST,easy,14
058SSAB,0,left,1,0.7345,ST,easy,15
058SSAB,0,left,1,0.9012,ST,easy,16
058SSAB,1,right,1,4.4664,ST,hard,1
058SSAB,0,left,1,1.2012,ST,hard,2
058SSAB,0,right,0,1.251299999,ST,hard,3
058SSAB,0,right,0,0.91809999900000006,ST,hard,4
058SSAB,1,left,0,1.200900001,ST,hard,5
058SSAB,0,left,1,1.2355,ST,hard,6
058SSAB,0,right,0,0.8868,ST,hard,7
058SSAB,1,left,0,1.2178,ST,hard,8
058SSAB,0,left,1,1.1515,ST,hard,9
058SSAB,1,left,0,1.2869,ST,hard,10
058SSAB,0,left,1,0.984799999,ST,hard,11
058SSAB,0,left,1,1.234599999,ST,hard,12
058SSAB,1,right,1,0.8844,ST,hard,13
058SSAB,0,left,1,0.9543,ST,hard,14
058SSAB,0,left,1,1.3345,ST,hard,15
058SSAB,0,left,1,1.401200001,ST,hard,16
058SSAB,1,right,1,1.0402,ST,medium,1
058SSAB,0,right,0,1.491599999,ST,medium,2
058SSAB,0,left,1,1.6679,ST,medium,3
058SSAB,0,left,1,1.9349,ST,medium,4
058SSAB,1,right,1,0.9511,ST,medium,5
058SSAB,0,right,0,1.968,ST,medium,6
058SSAB,0,left,1,1.1185,ST,medium,7
058SSAB,0,left,1,0.8183,ST,medium,8
058SSAB,0,left,1,0.9546,ST,medium,9
058SSAB,1,right,1,0.9512,ST,medium,10
058SSAB,1,right,1,1.554200001,ST,medium,11
058SSAB,0,left,1,0.868,ST,medium,12
058SSAB,0,left,1,1.034900001,ST,medium,13
058SSAB,1,left,0,0.8517,ST,medium,14
058SSAB,0,right,0,1.400799999,ST,medium,15
058SSAB,1,right,1,1.3161,ST,medium,16
059SSAS,0,left,1,1.287,ST,easy,1
059SSAS,1,right,1,1.3474,ST,easy,2
059SSAS,0,left,1,1.7153,ST,easy,3
059SSAS,0,left,1,0.7891,ST,easy,4
059SSAS,0,left,1,1.2694,ST,easy,5
059SSAS,0,left,1,0.6976,ST,easy,6
059SSAS,0,left,1,0.6165,ST,easy,7
059SSAS,1,right,1,1.2862,ST,easy,8
059SSAS,0,left,1,0.6569,ST,easy,9
059SSAS,1,right,1,0.9503,ST,easy,10
059SSAS,0,left,1,0.6571,ST,easy,11
059SSAS,1,right,1,0.7661,ST,easy,12
059SSAS,1,right,1,1.7543,ST,easy,13
059SSAS,0,left,1,0.5525,ST,easy,14
059SSAS,1,left,0,1.3576,ST,easy,15
059SSAS,0,left,1,0.9147,ST,easy,16
059SSAS,0,left,1,1.7595,ST,hard,1
059SSAS,0,left,1,1.3229,ST,hard,2
059SSAS,0,left,1,1.0359,ST,hard,3
059SSAS,0,left,1,0.8916,ST,hard,4
059SSAS,1,right,1,0.8055,ST,hard,5
059SSAS,1,right,1,0.8314,ST,hard,6
059SSAS,0,right,0,1.006,ST,hard,7
059SSAS,1,left,0,0.7983,ST,hard,8
059SSAS,1,right,1,1.1585,ST,hard,9
059SSAS,0,left,1,0.8847,ST,hard,10
059SSAS,1,left,0,0.8389,ST,hard,11
059SSAS,0,left,1,1.8032,ST,hard,12
059SSAS,0,left,1,0.6521,ST,hard,13
059SSAS,0,left,1,0.8242,ST,hard,14
059SSAS,1,right,1,0.6946,ST,hard,15
059SSAS,0,left,1,0.9351,ST,hard,16
059SSAS,1,right,1,0.8198,ST,medium,1
059SSAS,0,left,1,0.7185,ST,medium,2
059SSAS,1,right,1,1.0654,ST,medium,3
059SSAS,0,right,0,1.164,ST,medium,4
059SSAS,0,left,1,0.6846,ST,medium,5
059SSAS,1,right,1,0.8108,ST,medium,6
059SSAS,1,left,0,0.7047,ST,medium,7
059SSAS,1,right,1,0.5148,ST,medium,8
059SSAS,0,right,0,0.7784,ST,medium,9
059SSAS,0,left,1,0.8152,ST,medium,10
059SSAS,1,right,1,0.4408,ST,medium,11
059SSAS,0,right,0,1.4965,ST,medium,12
059SSAS,1,right,1,1.6328,ST,medium,13
059SSAS,0,left,1,0.9099,ST,medium,14
059SSAS,1,left,0,0.621,ST,medium,15
059SSAS,0,right,0,0.9498,ST,medium,16
062SSON,1,right,1,3.2117,ST,easy,1
062SSON,0,left,1,1.7098,ST,easy,2
062SSON,1,right,1,1.5958,ST,easy,3
062SSON,0,left,1,1.2694,ST,easy,4
062SSON,0,left,1,1.2927,ST,easy,5
062SSON,0,left,1,1.3549,ST,easy,6
062SSON,0,left,1,1.1263,ST,easy,7
062SSON,1,right,1,2.1255,ST,easy,8
062SSON,0,left,1,1.4127,ST,easy,9
062SSON,1,right,1,1.4447,ST,easy,10
062SSON,1,right,1,1.944,ST,easy,11
062SSON,1,right,1,1.4119,ST,easy,12
062SSON,0,left,1,1.5465,ST,easy,13
062SSON,0,left,1,1.2153,ST,easy,14
062SSON,1,right,1,1.3308,ST,easy,15
062SSON,1,right,1,1.1537,ST,easy,16
062SSON,0,left,1,7.357,ST,hard,1
062SSON,0,right,0,2.3537,ST,hard,2
062SSON,0,right,0,2.3077,ST,hard,3
062SSON,1,right,1,1.7105,ST,hard,4
062SSON,0,left,1,1.8113,ST,hard,5
062SSON,0,left,1,1.5094,ST,hard,6
062SSON,0,left,1,2.3923,ST,hard,7
062SSON,0,left,1,2.0545,ST,hard,8
062SSON,1,right,1,2.1296,ST,hard,9
062SSON,1,right,1,1.4166,ST,hard,10
062SSON,1,left,0,3.306,ST,hard,11
062SSON,0,left,1,1.3953,ST,hard,12
062SSON,0,left,1,1.6966,ST,hard,13
062SSON,1,right,1,2.4652,ST,hard,14
062SSON,1,right,1,2.1736,ST,hard,15
062SSON,1,left,0,1.2915,ST,hard,16
062SSON,1,right,1,1.9221,ST,medium,1
062SSON,0,left,1,2.1102,ST,medium,2
062SSON,1,right,1,1.4341,ST,medium,3
062SSON,1,right,1,1.1334,ST,medium,4
062SSON,1,left,0,1.6796,ST,medium,5
062SSON,0,right,0,2.0125,ST,medium,6
062SSON,1,right,1,1.3148,ST,medium,7
062SSON,0,left,1,1.2481,ST,medium,8
062SSON,0,left,1,1.2303,ST,medium,9
062SSON,1,right,1,3.2432,ST,medium,10
062SSON,0,left,1,1.1804,ST,medium,11
062SSON,0,left,1,1.6153,ST,medium,12
062SSON,1,right,1,1.6793,ST,medium,13
062SSON,1,right,1,3.5591,ST,medium,14
062SSON,1,right,1,1.6639,ST,medium,15
062SSON,1,right,1,1.9931,ST,medium,16
063SSMP,1,right,1,1.107,ST,easy,1
063SSMP,0,left,1,1.268,ST,easy,2
063SSMP,0,left,1,1.083,ST,easy,3
063SSMP,0,left,1,0.865,ST,easy,4
063SSMP,1,right,1,1.323,ST,easy,5
063SSMP,1,right,1,0.938,ST,easy,6
063SSMP,0,left,1,0.912,ST,easy,7
063SSMP,0,left,1,0.861,ST,easy,8
063SSMP,0,left,1,0.774,ST,easy,9
063SSMP,0,left,1,1.73,ST,easy,10
063SSMP,0,left,1,1.556,ST,easy,11
063SSMP,1,right,1,1.149,ST,easy,12
063SSMP,1,right,1,0.951,ST,easy,13
063SSMP,1,right,1,0.746,ST,easy,14
063SSMP,0,left,1,0.927,ST,easy,15
063SSMP,1,right,1,1.22,ST,easy,16
063SSMP,0,left,1,1.24,ST,hard,1
063SSMP,1,right,1,2.085,ST,hard,2
063SSMP,1,right,1,1.013,ST,hard,3
063SSMP,0,left,1,0.914,ST,hard,4
063SSMP,1,right,1,1.698,ST,hard,5
063SSMP,1,left,0,1.095,ST,hard,6
063SSMP,1,left,0,1.472,ST,hard,7
063SSMP,1,left,0,1.368,ST,hard,8
063SSMP,0,right,0,3.227,ST,hard,9
063SSMP,0,right,0,1.687,ST,hard,10
063SSMP,1,right,1,1.303,ST,hard,11
063SSMP,0,left,1,0.959,ST,hard,12
063SSMP,0,left,1,1.098,ST,hard,13
063SSMP,0,left,1,1.039,ST,hard,14
063SSMP,1,right,1,0.891,ST,hard,15
063SSMP,1,right,1,0.859,ST,hard,16
063SSMP,1,right,1,2.402,ST,medium,1
063SSMP,0,left,1,0.934,ST,medium,2
063SSMP,1,right,1,1.058,ST,medium,3
063SSMP,0,left,1,1.051,ST,medium,4
063SSMP,0,left,1,1.775,ST,medium,5
063SSMP,0,left,1,0.809,ST,medium,6
063SSMP,0,left,1,1.301,ST,medium,7
063SSMP,1,right,1,0.811,ST,medium,8
063SSMP,0,left,1,1.098,ST,medium,9
063SSMP,0,right,0,1.197,ST,medium,10
063SSMP,0,left,1,0.831,ST,medium,11
063SSMP,1,right,1,1.302,ST,medium,12
063SSMP,0,left,1,1.39,ST,medium,13
063SSMP,0,right,0,1.611,ST,medium,14
063SSMP,1,right,1,1.024,ST,medium,15
063SSMP,1,right,1,0.83,ST,medium,16
064SSAB,0,left,1,1.0582,ST,easy,1
064SSAB,1,right,1,0.976400001,ST,easy,2
064SSAB,0,left,1,0.76,ST,easy,3
064SSAB,0,left,1,1.6959,ST,easy,4
064SSAB,0,left,1,0.8233,ST,easy,5
064SSAB,1,right,1,1.317,ST,easy,6
064SSAB,1,right,1,0.8168,ST,easy,7
064SSAB,1,right,1,0.783599999,ST,easy,8
064SSAB,1,right,1,0.941799999,ST,easy,9
064SSAB,1,right,1,0.820799999,ST,easy,10
064SSAB,1,right,1,5.2833,ST,easy,11
064SSAB,0,left,1,0.560799999,ST,easy,12
064SSAB,0,left,1,1.183599999,ST,easy,13
064SSAB,0,left,1,0.879900001,ST,easy,14
064SSAB,0,left,1,0.5777,ST,easy,15
064SSAB,1,right,1,0.7307,ST,easy,16
064SSAB,0,left,1,0.9475,ST,hard,1
064SSAB,0,left,1,1.6708,ST,hard,2
064SSAB,0,right,0,3.135,ST,hard,3
064SSAB,0,left,1,1.439599999,ST,hard,4
064SSAB,1,right,1,1.4487,ST,hard,5
064SSAB,1,right,1,1.1132,ST,hard,6
064SSAB,0,right,0,3.8426,ST,hard,7
064SSAB,1,right,1,1.127,ST,hard,8
064SSAB,1,right,1,1.262,ST,hard,9
064SSAB,1,left,0,0.579599999,ST,hard,10
064SSAB,0,left,1,0.8319,ST,hard,11
064SSAB,0,left,1,0.928200001,ST,hard,12
064SSAB,0,left,1,0.963,ST,hard,13
064SSAB,0,left,1,1.6502,ST,hard,14
064SSAB,1,right,1,0.9984,ST,hard,15
064SSAB,0,left,1,1.093099999,ST,hard,16
064SSAB,1,right,1,1.5182,ST,medium,1
064SSAB,0,left,1,0.8834,ST,medium,2
064SSAB,1,right,1,0.8934,ST,medium,3
064SSAB,0,left,1,2.0258,ST,medium,4
064SSAB,0,left,1,1.2562,ST,medium,5
064SSAB,1,right,1,3.8532,ST,medium,6
064SSAB,1,right,1,0.9957,ST,medium,7
064SSAB,1,right,1,1.600400001,ST,medium,8
064SSAB,0,left,1,2.6827,ST,medium,9
064SSAB,1,right,1,0.7958,ST,medium,10
064SSAB,1,right,1,1.0002,ST,medium,11
064SSAB,0,left,1,1.0737,ST,medium,12
064SSAB,1,right,1,0.7557,ST,medium,13
064SSAB,1,right,1,0.833599999,ST,medium,14
064SSAB,1,right,1,4.9663,ST,medium,15
064SSAB,1,right,1,0.7003,ST,medium,16
065SSTM,1,right,1,1.4177,ST,easy,1
065SSTM,0,left,1,1.2129,ST,easy,2
065SSTM,1,right,1,1.2462,ST,easy,3
065SSTM,0,left,1,1.0676,ST,easy,4
065SSTM,0,left,1,1.2862,ST,easy,5
065SSTM,1,right,1,0.8888,ST,easy,6
065SSTM,0,left,1,1.0428,ST,easy,7
065SSTM,1,right,1,1.0837,ST,easy,8
065SSTM,0,left,1,0.9412,ST,easy,9
065SSTM,1,right,1,0.8627,ST,easy,10
065SSTM,0,left,1,0.9692,ST,easy,11
065SSTM,1,right,1,0.9066,ST,easy,12
065SSTM,0,left,1,0.8082,ST,easy,13
065SSTM,0,left,1,0.8322,ST,easy,14
065SSTM,0,left,1,0.7958,ST,easy,15
065SSTM,1,right,1,1.168,ST,easy,16
065SSTM,1,right,1,3.6217,ST,hard,1
065SSTM,1,left,0,1.2587,ST,hard,2
065SSTM,0,left,1,0.9671,ST,hard,3
065SSTM,1,right,1,1.6492,ST,hard,4
065SSTM,0,left,1,1.3136,ST,hard,5
065SSTM,1,left,0,1.2805,ST,hard,6
065SSTM,0,left,1,0.9144,ST,hard,7
065SSTM,0,left,1,1.6556,ST,hard,8
065SSTM,0,left,1,1.0585,ST,hard,9
065SSTM,1,right,1,0.7562,ST,hard,10
065SSTM,1,left,0,1.263,ST,hard,11
065SSTM,0,right,0,1.0488,ST,hard,12
065SSTM,1,right,1,1.0215,ST,hard,13
065SSTM,0,right,0,3.3461,ST,hard,14
065SSTM,0,left,1,1.1333,ST,hard,15
065SSTM,1,left,0,1.0532,ST,hard,16
065SSTM,0,left,1,1.937,ST,medium,1
065SSTM,0,left,1,1.0174,ST,medium,2
065SSTM,1,right,1,1.2838,ST,medium,3
065SSTM,1,right,1,1.1187,ST,medium,4
065SSTM,0,left,1,1.4678,ST,medium,5
065SSTM,1,right,1,0.8177,ST,medium,6
065SSTM,0,left,1,1.1903,ST,medium,7
065SSTM,1,right,1,0.921,ST,medium,8
065SSTM,1,right,1,0.8179,ST,medium,9
065SSTM,0,left,1,0.6678,ST,medium,10
065SSTM,0,left,1,0.9583,ST,medium,11
065SSTM,1,right,1,0.836,ST,medium,12
065SSTM,0,left,1,0.9845,ST,medium,13
065SSTM,1,right,1,0.7438,ST,medium,14
065SSTM,0,left,1,0.7583,ST,medium,15
065SSTM,0,left,1,0.9337,ST,medium,16
067SSDA,1,right,1,1.0929,ST,easy,1
067SSDA,1,right,1,1.1335,ST,easy,2
067SSDA,1,right,1,1.3166,ST,easy,3
067SSDA,0,left,1,0.9702,ST,easy,4
067SSDA,1,right,1,0.9575,ST,easy,5
067SSDA,0,left,1,2.5173,ST,easy,6
067SSDA,1,right,1,0.9595,ST,easy,7
067SSDA,1,right,1,0.7719,ST,easy,8
067SSDA,0,left,1,1.367,ST,easy,9
067SSDA,0,left,1,1.8236,ST,easy,10
067SSDA,0,left,1,1.0735,ST,easy,11
067SSDA,1,right,1,1.2409,ST,easy,12
067SSDA,0,left,1,1.0689,ST,easy,13
067SSDA,1,right,1,1.1169,ST,easy,14
067SSDA,0,left,1,0.9848,ST,easy,15
067SSDA,0,left,1,1.5998000000000001,ST,easy,16
067SSDA,1,left,0,1.1196,ST,hard,1
067SSDA,1,left,0,2.0895,ST,hard,2
067SSDA,1,right,1,1.461,ST,hard,3
067SSDA,1,left,0,2.5324,ST,hard,4
067SSDA,0,right,0,5.9476,ST,hard,5
067SSDA,1,right,1,1.2335,ST,hard,6
067SSDA,1,right,1,1.2501,ST,hard,7
067SSDA,1,left,0,0.9006,ST,hard,8
067SSDA,0,left,1,2.7154,ST,hard,9
067SSDA,0,left,1,3.0933,ST,hard,10
067SSDA,1,right,1,0.935,ST,hard,11
067SSDA,0,left,1,2.8553,ST,hard,12
067SSDA,1,right,1,1.3783,ST,hard,13
067SSDA,1,right,1,2.4706,ST,hard,14
067SSDA,1,left,0,1.9495,ST,hard,15
067SSDA,1,right,1,2.7936,ST,hard,16
067SSDA,0,left,1,1.2277,ST,medium,1
067SSDA,0,right,0,0.9168,ST,medium,2
067SSDA,1,right,1,1.117,ST,medium,3
067SSDA,1,left,0,1.0188,ST,medium,4
067SSDA,1,left,0,2.0662,ST,medium,5
067SSDA,0,left,1,1.3558,ST,medium,6
067SSDA,1,left,0,1.7115,ST,medium,7
067SSDA,0,left,1,1.194,ST,medium,8
067SSDA,1,right,1,1.339,ST,medium,9
067SSDA,1,right,1,1.7022,ST,medium,10
067SSDA,0,left,1,1.5069,ST,medium,11
067SSDA,0,left,1,1.1845,ST,medium,12
067SSDA,1,left,0,2.2922,ST,medium,13
067SSDA,0,right,0,2.4353,ST,medium,14
067SSDA,1,right,1,1.5673,ST,medium,15
067SSDA,0,left,1,0.8878,ST,medium,16
068SSMT,0,left,1,0.894,ST,easy,1
068SSMT,0,left,1,0.714,ST,easy,2
068SSMT,0,left,1,0.613,ST,easy,3
068SSMT,0,left,1,0.847,ST,easy,4
068SSMT,0,left,1,0.655,ST,easy,5
068SSMT,1,right,1,0.821,ST,easy,6
068SSMT,1,right,1,0.747,ST,easy,7
068SSMT,1,right,1,0.797,ST,easy,8
068SSMT,1,right,1,0.648,ST,easy,9
068SSMT,1,right,1,0.679,ST,easy,10
068SSMT,1,right,1,0.516,ST,easy,11
068SSMT,1,right,1,0.668,ST,easy,12
068SSMT,0,left,1,1.279,ST,easy,13
068SSMT,0,left,1,0.714,ST,easy,14
068SSMT,1,right,1,0.603,ST,easy,15
068SSMT,1,right,1,0.937,ST,easy,16
068SSMT,1,right,1,0.782,ST,hard,1
068SSMT,1,left,0,2.514,ST,hard,2
068SSMT,1,left,0,1.23,ST,hard,3
068SSMT,1,left,0,1.029,ST,hard,4
068SSMT,0,left,1,0.97,ST,hard,5
068SSMT,0,left,1,1.156,ST,hard,6
068SSMT,1,right,1,0.98,ST,hard,7
068SSMT,1,right,1,0.586,ST,hard,8
068SSMT,1,left,0,0.83,ST,hard,9
068SSMT,1,right,1,0.645,ST,hard,10
068SSMT,1,right,1,0.762,ST,hard,11
068SSMT,0,left,1,1.546,ST,hard,12
068SSMT,1,right,1,0.779,ST,hard,13
068SSMT,0,left,1,2.28,ST,hard,14
068SSMT,0,left,1,1.023,ST,hard,15
068SSMT,1,left,0,0.979,ST,hard,16
068SSMT,1,right,1,1.043,ST,medium,1
068SSMT,1,right,1,1.012,ST,medium,2
068SSMT,0,left,1,1.146,ST,medium,3
068SSMT,1,right,1,2.296,ST,medium,4
068SSMT,1,right,1,0.68,ST,medium,5
068SSMT,1,right,1,0.752,ST,medium,6
068SSMT,1,right,1,0.996,ST,medium,7
068SSMT,1,right,1,1.581,ST,medium,8
068SSMT,0,left,1,1.014,ST,medium,9
068SSMT,1,left,0,1.13,ST,medium,10
068SSMT,1,right,1,1.096,ST,medium,11
068SSMT,1,left,0,0.913,ST,medium,12
068SSMT,0,left,1,0.746,ST,medium,13
068SSMT,1,left,0,0.754,ST,medium,14
068SSMT,0,left,1,1.043,ST,medium,15
068SSMT,1,right,1,0.619,ST,medium,16
070SSAK,0,left,1,3.2615,ST,easy,1
070SSAK,0,left,1,0.6504,ST,easy,2
070SSAK,0,left,1,0.71,ST,easy,3
070SSAK,0,left,1,0.6092,ST,easy,4
070SSAK,1,right,1,1.1386,ST,easy,5
070SSAK,1,right,1,1.0048,ST,easy,6
070SSAK,1,right,1,0.7701,ST,easy,7
070SSAK,0,left,1,0.933,ST,easy,8
070SSAK,1,right,1,0.8416,ST,easy,9
070SSAK,0,left,1,0.5748,ST,easy,10
070SSAK,0,left,1,0.6507,ST,easy,11
070SSAK,0,left,1,1.6565,ST,easy,12
070SSAK,0,left,1,0.6209,ST,easy,13
070SSAK,1,right,1,0.7124,ST,easy,14
070SSAK,0,left,1,0.5219,ST,easy,15
070SSAK,0,left,1,1.0492,ST,easy,16
070SSAK,1,left,0,2.1817,ST,hard,1
070SSAK,1,left,0,0.8491,ST,hard,2
070SSAK,0,left,1,0.779,ST,hard,3
070SSAK,0,left,1,0.7338,ST,hard,4
070SSAK,0,left,1,0.8643,ST,hard,5
070SSAK,1,left,0,0.9666,ST,hard,6
070SSAK,1,right,1,2.3456,ST,hard,7
070SSAK,1,left,0,0.8954,ST,hard,8
070SSAK,1,left,0,0.9749,ST,hard,9
070SSAK,0,left,1,1.2879,ST,hard,10
070SSAK,1,right,1,0.8661,ST,hard,11
070SSAK,0,left,1,0.831,ST,hard,12
070SSAK,0,left,1,1.0894,ST,hard,13
070SSAK,1,left,0,1.3878,ST,hard,14
070SSAK,1,right,1,0.9432,ST,hard,15
070SSAK,1,right,1,0.9676,ST,hard,16
070SSAK,0,left,1,1.707,ST,medium,1
070SSAK,0,left,1,0.9312,ST,medium,2
070SSAK,1,right,1,0.953,ST,medium,3
070SSAK,0,left,1,1.2554,ST,medium,4
070SSAK,1,right,1,1.4025,ST,medium,5
070SSAK,1,right,1,0.9322,ST,medium,6
070SSAK,1,right,1,1.0704,ST,medium,7
070SSAK,1,right,1,3.1285,ST,medium,8
070SSAK,1,right,1,1.5855,ST,medium,9
070SSAK,1,left,0,0.6319,ST,medium,10
070SSAK,0,left,1,0.7003,ST,medium,11
070SSAK,0,right,0,1.2616,ST,medium,12
070SSAK,0,left,1,1.1433,ST,medium,13
070SSAK,0,right,0,0.9432,ST,medium,14
070SSAK,0,left,1,4.2343,ST,medium,15
070SSAK,0,left,1,0.8673,ST,medium,16
071SSEB,0,left,1,1.5299,ST,easy,1
071SSEB,1,right,1,1.0814,ST,easy,2
071SSEB,1,right,1,0.8894,ST,easy,3
071SSEB,1,right,1,0.7646,ST,easy,4
071SSEB,0,left,1,1.0004,ST,easy,5
071SSEB,1,right,1,0.7709,ST,easy,6
071SSEB,0,left,1,1.0327,ST,easy,7
071SSEB,1,right,1,0.6265,ST,easy,8
071SSEB,0,left,1,0.7934,ST,easy,9
071SSEB,1,right,1,1.2215,ST,easy,10
071SSEB,0,left,1,2.4321,ST,easy,11
071SSEB,1,right,1,0.6189,ST,easy,12
071SSEB,0,left,1,0.8849,ST,easy,13
071SSEB,1,right,1,0.5329,ST,easy,14
071SSEB,1,right,1,0.7156,ST,easy,15
071SSEB,1,right,1,0.6357,ST,easy,16
071SSEB,1,right,1,2.2543,ST,hard,1
071SSEB,1,left,0,1.7161,ST,hard,2
071SSEB,0,left,1,1.3066,ST,hard,3
071SSEB,0,left,1,1.1414,ST,hard,4
071SSEB,1,right,1,1.0154,ST,hard,5
071SSEB,0,right,0,1.6874,ST,hard,6
071SSEB,0,left,1,2.0343,ST,hard,7
071SSEB,0,left,1,1.771,ST,hard,8
071SSEB,0,left,1,3.0825,ST,hard,9
071SSEB,1,right,1,1.1654,ST,hard,10
071SSEB,0,left,1,0.9892,ST,hard,11
071SSEB,0,left,1,1.2186,ST,hard,12
071SSEB,1,left,0,0.9836,ST,hard,13
071SSEB,1,left,0,2.0282,ST,hard,14
071SSEB,1,right,1,1.1888,ST,hard,15
071SSEB,1,right,1,1.4311,ST,hard,16
071SSEB,1,right,1,1.4801,ST,medium,1
071SSEB,0,left,1,1.7015,ST,medium,2
071SSEB,0,left,1,1.4339,ST,medium,3
071SSEB,1,right,1,1.3117,ST,medium,4
071SSEB,0,left,1,1.6665,ST,medium,5
071SSEB,0,left,1,1.4773,ST,medium,6
071SSEB,0,left,1,1.2509,ST,medium,7
071SSEB,1,right,1,2.0829,ST,medium,8
071SSEB,1,right,1,1.2364,ST,medium,9
071SSEB,1,right,1,1.5966,ST,medium,10
071SSEB,0,left,1,1.5681,ST,medium,11
071SSEB,1,right,1,1.1423,ST,medium,12
071SSEB,1,right,1,1.0004,ST,medium,13
071SSEB,0,left,1,1.2895,ST,medium,14
071SSEB,1,right,1,0.9597,ST,medium,15
071SSEB,1,left,0,1.3293,ST,medium,16
073SSMS,0,left,1,0.8989,ST,easy,1
073SSMS,1,right,1,0.8679,ST,easy,2
073SSMS,0,left,1,0.7638,ST,easy,3
073SSMS,0,left,1,0.7329,ST,easy,4
073SSMS,1,right,1,0.8387,ST,easy,5
073SSMS,1,right,1,1.7553,ST,easy,6
073SSMS,1,right,1,0.8744,ST,easy,7
073SSMS,0,left,1,1.0504,ST,easy,8
073SSMS,1,right,1,0.8705,ST,easy,9
073SSMS,0,left,1,0.6493,ST,easy,10
073SSMS,1,right,1,0.7718,ST,easy,11
073SSMS,1,right,1,0.6636,ST,easy,12
073SSMS,0,left,1,0.7484,ST,easy,13
073SSMS,1,right,1,0.7643,ST,easy,14
073SSMS,1,left,0,1.7622,ST,easy,15
073SSMS,0,left,1,0.919,ST,easy,16
073SSMS,1,right,1,1.1394,ST,hard,1
073SSMS,0,left,1,1.3652,ST,hard,2
073SSMS,0,left,1,0.7842,ST,hard,3
073SSMS,1,left,0,0.7645,ST,hard,4
073SSMS,1,left,0,2.5954,ST,hard,5
073SSMS,0,left,1,1.8606,ST,hard,6
073SSMS,1,right,1,1.2677,ST,hard,7
073SSMS,0,left,1,1.0816,ST,hard,8
073SSMS,0,left,1,1.7173,ST,hard,9
073SSMS,1,right,1,0.9188,ST,hard,10
073SSMS,1,right,1,1.2056,ST,hard,11
073SSMS,0,left,1,0.8386,ST,hard,12
073SSMS,1,right,1,1.2148,ST,hard,13
073SSMS,1,right,1,0.6244,ST,hard,14
073SSMS,0,left,1,1.1333,ST,hard,15
073SSMS,1,right,1,0.6512,ST,hard,16
073SSMS,1,right,1,0.7654,ST,medium,1
073SSMS,1,right,1,0.6865,ST,medium,2
073SSMS,0,left,1,0.9359,ST,medium,3
073SSMS,1,right,1,0.7679,ST,medium,4
073SSMS,0,left,1,0.8349,ST,medium,5
073SSMS,1,right,1,0.6806,ST,medium,6
073SSMS,1,right,1,0.9665,ST,medium,7
073SSMS,0,left,1,0.7815,ST,medium,8
073SSMS,0,left,1,0.9822,ST,medium,9
073SSMS,1,right,1,1.1729,ST,medium,10
073SSMS,0,right,0,0.8219,ST,medium,11
073SSMS,1,left,0,0.7171,ST,medium,12
073SSMS,0,left,1,0.7159,ST,medium,13
073SSMS,0,left,1,1.115,ST,medium,14
073SSMS,1,left,0,1.1047,ST,medium,15
073SSMS,0,left,1,0.9393,ST,medium,16
074SSKS,1,right,1,0.914,ST,easy,1
074SSKS,0,left,1,0.923,ST,easy,2
074SSKS,0,left,1,0.966,ST,easy,3
074SSKS,1,right,1,0.885,ST,easy,4
074SSKS,0,left,1,0.847,ST,easy,5
074SSKS,1,right,1,1.165,ST,easy,6
074SSKS,1,right,1,1.033,ST,easy,7
074SSKS,0,left,1,1.047,ST,easy,8
074SSKS,0,left,1,0.553,ST,easy,9
074SSKS,0,left,1,0.722,ST,easy,10
074SSKS,0,left,1,0.683,ST,easy,11
074SSKS,0,left,1,0.672,ST,easy,12
074SSKS,0,left,1,0.582,ST,easy,13
074SSKS,0,left,1,0.647,ST,easy,14
074SSKS,1,right,1,1.086,ST,easy,15
074SSKS,0,left,1,0.674,ST,easy,16
074SSKS,0,left,1,1.104,ST,hard,1
074SSKS,1,right,1,0.878,ST,hard,2
074SSKS,1,right,1,1.114,ST,hard,3
074SSKS,1,right,1,0.842,ST,hard,4
074SSKS,0,left,1,1.098,ST,hard,5
074SSKS,1,left,0,0.995,ST,hard,6
074SSKS,0,left,1,0.984,ST,hard,7
074SSKS,0,left,1,1.423,ST,hard,8
074SSKS,1,right,1,0.957,ST,hard,9
074SSKS,0,left,1,1.006,ST,hard,10
074SSKS,1,right,1,1.128,ST,hard,11
074SSKS,0,left,1,1.444,ST,hard,12
074SSKS,0,left,1,1.09,ST,hard,13
074SSKS,1,right,1,0.645,ST,hard,14
074SSKS,1,right,1,0.9,ST,hard,15
074SSKS,1,left,0,1.931,ST,hard,16
074SSKS,1,right,1,1.061,ST,medium,1
074SSKS,0,left,1,1.061,ST,medium,2
074SSKS,0,left,1,0.763,ST,medium,3
074SSKS,0,left,1,1.088,ST,medium,4
074SSKS,0,left,1,1.783,ST,medium,5
074SSKS,0,left,1,1.875,ST,medium,6
074SSKS,1,right,1,1.183,ST,medium,7
074SSKS,0,left,1,1.126,ST,medium,8
074SSKS,0,left,1,1.278,ST,medium,9
074SSKS,0,left,1,1.111,ST,medium,10
074SSKS,1,right,1,1.035,ST,medium,11
074SSKS,1,left,0,1.066,ST,medium,12
074SSKS,0,left,1,1.024,ST,medium,13
074SSKS,1,right,1,0.771,ST,medium,14
074SSKS,1,right,1,1.045,ST,medium,15
074SSKS,1,right,1,0.902,ST,medium,16
076SSRK,0,left,1,2.205200001,ST,easy,1
076SSRK,0,left,1,1.4231,ST,easy,2
076SSRK,1,right,1,1.3006,ST,easy,3
076SSRK,1,right,1,1.619,ST,easy,4
076SSRK,0,left,1,1.206,ST,easy,5
076SSRK,0,left,1,1.5244,ST,easy,6
076SSRK,1,right,1,1.5055,ST,easy,7
076SSRK,1,right,1,1.266700001,ST,easy,8
076SSRK,0,left,1,1.338,ST,easy,9
076SSRK,1,right,1,1.231300001,ST,easy,10
076SSRK,1,right,1,1.4535,ST,easy,11
076SSRK,0,left,1,1.383200001,ST,easy,12
076SSRK,0,left,1,1.0396,ST,easy,13
076SSRK,0,left,1,1.219200001,ST,easy,14
076SSRK,1,right,1,1.318700001,ST,easy,15
076SSRK,1,right,1,1.0661,ST,easy,16
076SSRK,0,left,1,1.2066,ST,hard,1
076SSRK,0,left,1,1.1576,ST,hard,2
076SSRK,0,left,1,1.066699999,ST,hard,3
076SSRK,0,right,0,1.251700001,ST,hard,4
076SSRK,0,left,1,1.151,ST,hard,5
076SSRK,0,left,1,1.149599998,ST,hard,6
076SSRK,1,right,1,1.265799999,ST,hard,7
076SSRK,1,left,0,1.1251,ST,hard,8
076SSRK,0,left,1,1.1719,ST,hard,9
076SSRK,0,left,1,1.036799999,ST,hard,10
076SSRK,1,left,0,1.1921,ST,hard,11
076SSRK,0,left,1,1.1176,ST,hard,12
076SSRK,0,left,1,1.227700001,ST,hard,13
076SSRK,1,left,0,0.821,ST,hard,14
076SSRK,0,left,1,1.133,ST,hard,15
076SSRK,1,left,0,1.254700001,ST,hard,16
076SSRK,1,right,1,2.182800001,ST,medium,1
076SSRK,1,right,1,1.789799999,ST,medium,2
076SSRK,1,left,0,2.2989,ST,medium,3
076SSRK,1,right,1,1.854800001,ST,medium,4
076SSRK,0,left,1,2.099099998,ST,medium,5
076SSRK,1,left,0,1.5925,ST,medium,6
076SSRK,0,left,1,1.713299999,ST,medium,7
076SSRK,1,right,1,1.399799999,ST,medium,8
076SSRK,0,left,1,1.299800001,ST,medium,9
076SSRK,1,left,0,1.668700001,ST,medium,10
076SSRK,1,right,1,2.7039,ST,medium,11
076SSRK,0,left,1,1.350900002,ST,medium,12
076SSRK,1,right,1,1.235699999,ST,medium,13
076SSRK,0,left,1,1.287400002,ST,medium,14
076SSRK,1,right,1,2.602800001,ST,medium,15
076SSRK,0,left,1,1.4536,ST,medium,16
077SSKK,0,left,1,3.848,ST,easy,1
077SSKK,1,right,1,3.5388,ST,easy,2
077SSKK,1,right,1,0.8962,ST,easy,3
077SSKK,1,right,1,0.9335,ST,easy,4
077SSKK,1,right,1,0.8697,ST,easy,5
077SSKK,0,left,1,1.8267,ST,easy,6
077SSKK,1,right,1,1.1681,ST,easy,7
077SSKK,1,right,1,1.2028,ST,easy,8
077SSKK,1,right,1,0.8302,ST,easy,9
077SSKK,1,right,1,0.9378,ST,easy,10
077SSKK,0,left,1,1.0656,ST,easy,11
077SSKK,0,left,1,0.9933,ST,easy,12
077SSKK,1,right,1,0.8335,ST,easy,13
077SSKK,1,right,1,0.7799,ST,easy,14
077SSKK,1,right,1,1.6397,ST,easy,15
077SSKK,1,right,1,0.7313,ST,easy,16
077SSKK,1,left,0,14.167,ST,hard,1
077SSKK,0,left,1,2.9785,ST,hard,2
077SSKK,0,left,1,3.0509,ST,hard,3
077SSKK,0,right,0,0.626,ST,hard,4
077SSKK,0,left,1,5.9935,ST,hard,5
077SSKK,0,left,1,4.1539,ST,hard,6
077SSKK,0,left,1,1.1351,ST,hard,7
077SSKK,1,right,1,1.0143,ST,hard,8
077SSKK,0,left,1,2.9447,ST,hard,9
077SSKK,1,right,1,3.0699,ST,hard,10
077SSKK,0,left,1,3.0351,ST,hard,11
077SSKK,1,right,1,4.6045,ST,hard,12
077SSKK,1,right,1,2.7302,ST,hard,13
077SSKK,0,left,1,2.6346,ST,hard,14
077SSKK,1,right,1,1.7096,ST,hard,15
077SSKK,0,left,1,2.4378,ST,hard,16
077SSKK,0,left,1,2.7152,ST,medium,1
077SSKK,0,left,1,1.5932,ST,medium,2
077SSKK,0,left,1,1.5861,ST,medium,3
077SSKK,1,right,1,1.3765,ST,medium,4
077SSKK,0,left,1,1.7175,ST,medium,5
077SSKK,1,right,1,1.289,ST,medium,6
077SSKK,0,left,1,1.1678,ST,medium,7
077SSKK,1,right,1,1.2154,ST,medium,8
077SSKK,1,right,1,1.085,ST,medium,9
077SSKK,1,left,0,1.1609,ST,medium,10
077SSKK,0,left,1,1.0015,ST,medium,11
077SSKK,0,left,1,1.1136,ST,medium,12
077SSKK,0,left,1,1.4389,ST,medium,13
077SSKK,1,right,1,1.0142,ST,medium,14
077SSKK,1,right,1,1.8074,ST,medium,15
077SSKK,1,left,0,0.8336,ST,medium,16
079SSRR,0,left,1,4.221,ST,easy,1
079SSRR,0,left,1,4.112,ST,easy,2
079SSRR,1,right,1,2.254,ST,easy,3
079SSRR,1,right,1,2.518,ST,easy,4
079SSRR,0,left,1,2.534,ST,easy,5
079SSRR,0,left,1,2.451,ST,easy,6
079SSRR,1,right,1,2.187,ST,easy,7
079SSRR,0,left,1,1.485,ST,easy,8
079SSRR,0,left,1,3.128,ST,easy,9
079SSRR,1,right,1,1.665,ST,easy,10
079SSRR,0,left,1,1.957,ST,easy,11
079SSRR,0,left,1,3.564,ST,easy,12
079SSRR,0,left,1,2.261,ST,easy,13
079SSRR,0,left,1,2.042,ST,easy,14
079SSRR,1,right,1,1.609,ST,easy,15
079SSRR,1,right,1,1.515,ST,easy,16
079SSRR,1,left,0,1.806,ST,hard,1
079SSRR,1,right,1,1.297,ST,hard,2
079SSRR,0,left,1,1.523,ST,hard,3
079SSRR,1,left,0,2.626,ST,hard,4
079SSRR,0,left,1,1.116,ST,hard,5
079SSRR,1,right,1,2.56,ST,hard,6
079SSRR,1,right,1,1.579,ST,hard,7
079SSRR,0,right,0,9.481,ST,hard,8
079SSRR,0,left,1,1.356,ST,hard,9
079SSRR,1,right,1,1.467,ST,hard,10
079SSRR,0,left,1,1.355,ST,hard,11
079SSRR,0,left,1,1.383,ST,hard,12
079SSRR,0,left,1,1.524,ST,hard,13
079SSRR,0,left,1,1.667,ST,hard,14
079SSRR,0,left,1,1.272,ST,hard,15
079SSRR,0,left,1,1.67,ST,hard,16
079SSRR,0,left,1,2.359,ST,medium,1
079SSRR,1,right,1,2.915,ST,medium,2
079SSRR,1,right,1,1.95,ST,medium,3
079SSRR,1,right,1,1.546,ST,medium,4
079SSRR,1,right,1,2.21,ST,medium,5
079SSRR,0,right,0,2.323,ST,medium,6
079SSRR,0,left,1,1.854,ST,medium,7
079SSRR,0,left,1,1.605,ST,medium,8
079SSRR,0,left,1,2.53,ST,medium,9
079SSRR,0,left,1,2.735,ST,medium,10
079SSRR,1,left,0,6.897,ST,medium,11
079SSRR,0,left,1,1.764,ST,medium,12
079SSRR,1,right,1,4.814,ST,medium,13
079SSRR,1,left,0,2.678,ST,medium,14
079SSRR,0,left,1,1.497,ST,medium,15
079SSRR,0,left,1,1.371,ST,medium,16
080SSAF,1,right,1,1.0815,ST,easy,1
080SSAF,0,left,1,1.784200001,ST,easy,2
080SSAF,0,left,1,0.783400002,ST,easy,3
080SSAF,0,left,1,0.6709,ST,easy,4
080SSAF,1,right,1,1.0855,ST,easy,5
080SSAF,0,left,1,0.834299999,ST,easy,6
080SSAF,1,right,1,1.1365,ST,easy,7
080SSAF,0,left,1,0.782299999,ST,easy,8
080SSAF,1,right,1,0.9805,ST,easy,9
080SSAF,1,right,1,0.9665,ST,easy,10
080SSAF,1,right,1,0.7986,ST,easy,11
080SSAF,1,right,1,0.9159,ST,easy,12
080SSAF,1,right,1,1.0329,ST,easy,13
080SSAF,1,right,1,1.166,ST,easy,14
080SSAF,1,right,1,0.8715,ST,easy,15
080SSAF,0,left,1,0.5814,ST,easy,16
080SSAF,1,right,1,1.578799999,ST,hard,1
080SSAF,0,left,1,1.3151,ST,hard,2
080SSAF,1,left,0,2.1205,ST,hard,3
080SSAF,1,right,1,1.3981,ST,hard,4
080SSAF,0,left,1,2.4841,ST,hard,5
080SSAF,1,right,1,1.1675,ST,hard,6
080SSAF,1,left,0,1.534099998,ST,hard,7
080SSAF,0,left,1,0.929800001,ST,hard,8
080SSAF,1,right,1,1.3661,ST,hard,9
080SSAF,0,left,1,0.748200001,ST,hard,10
080SSAF,1,left,0,1.053099998,ST,hard,11
080SSAF,0,left,1,0.8009,ST,hard,12
080SSAF,1,left,0,0.682599998,ST,hard,13
080SSAF,1,left,0,0.765099998,ST,hard,14
080SSAF,0,left,1,0.733799999,ST,hard,15
080SSAF,1,left,0,0.6309,ST,hard,16
080SSAF,0,left,1,1.0086,ST,medium,1
080SSAF,0,left,1,0.808299999,ST,medium,2
080SSAF,1,right,1,1.239199999,ST,medium,3
080SSAF,1,right,1,1.150599998,ST,medium,4
080SSAF,1,right,1,0.907799999,ST,medium,5
080SSAF,0,left,1,0.6835,ST,medium,6
080SSAF,1,right,1,1.201199999,ST,medium,7
080SSAF,0,left,1,0.7901,ST,medium,8
080SSAF,0,left,1,0.8674,ST,medium,9
080SSAF,0,left,1,0.7341,ST,medium,10
080SSAF,1,right,1,0.8344,ST,medium,11
080SSAF,0,left,1,1.2845,ST,medium,12
080SSAF,0,left,1,0.8489,ST,medium,13
080SSAF,0,left,1,1.006,ST,medium,14
080SSAF,0,right,0,0.6726,ST,medium,15
080SSAF,1,right,1,0.6639,ST,medium,16
083SSAN,0,left,1,0.793800001,ST,easy,1
083SSAN,1,right,1,1.1831,ST,easy,2
083SSAN,0,left,1,0.640700001,ST,easy,3
083SSAN,0,left,1,0.8679,ST,easy,4
083SSAN,1,right,1,1.480099998,ST,easy,5
083SSAN,0,left,1,0.7141,ST,easy,6
083SSAN,1,right,1,1.680900002,ST,easy,7
083SSAN,1,right,1,0.863199999,ST,easy,8
083SSAN,0,left,1,0.6136,ST,easy,9
083SSAN,0,left,1,0.6584,ST,easy,10
083SSAN,0,left,1,0.746199999,ST,easy,11
083SSAN,1,right,1,1.280799999,ST,easy,12
083SSAN,0,left,1,0.8025,ST,easy,13
083SSAN,0,left,1,0.7306,ST,easy,14
083SSAN,0,left,1,0.7141,ST,easy,15
083SSAN,1,right,1,1.2505,ST,easy,16
083SSAN,1,right,1,1.1441,ST,hard,1
083SSAN,1,right,1,1.0545,ST,hard,2
083SSAN,1,right,1,0.911800001,ST,hard,3
083SSAN,0,left,1,0.8495,ST,hard,4
083SSAN,0,left,1,0.747800001,ST,hard,5
083SSAN,1,right,1,0.900299999,ST,hard,6
083SSAN,0,left,1,1.1729,ST,hard,7
083SSAN,0,left,1,0.9665,ST,hard,8
083SSAN,1,left,0,3.5034,ST,hard,9
083SSAN,1,right,1,0.995800001,ST,hard,10
083SSAN,1,right,1,0.733799999,ST,hard,11
083SSAN,0,left,1,0.7825,ST,hard,12
083SSAN,0,left,1,0.996300001,ST,hard,13
083SSAN,1,left,0,1.9069,ST,hard,14
083SSAN,1,left,0,0.8801,ST,hard,15
083SSAN,1,left,0,1.021900002,ST,hard,16
083SSAN,0,left,1,1.745,ST,medium,1
083SSAN,0,left,1,1.411699999,ST,medium,2
083SSAN,0,left,1,1.104199999,ST,medium,3
083SSAN,1,right,1,1.002,ST,medium,4
083SSAN,1,right,1,1.0689,ST,medium,5
083SSAN,1,right,1,1.1851,ST,medium,6
083SSAN,0,left,1,0.853,ST,medium,7
083SSAN,1,left,0,1.1561,ST,medium,8
083SSAN,1,right,1,0.920800001,ST,medium,9
083SSAN,1,left,0,1.746799999,ST,medium,10
083SSAN,0,left,1,0.7784,ST,medium,11
083SSAN,0,left,1,1.1365,ST,medium,12
083SSAN,0,left,1,0.9464,ST,medium,13
083SSAN,1,right,1,1.1714,ST,medium,14
083SSAN,0,left,1,0.7861,ST,medium,15
083SSAN,0,left,1,0.7875,ST,medium,16
086SSAI,1,right,1,1.1952,ST,easy,1
086SSAI,1,right,1,1.2182,ST,easy,2
086SSAI,1,right,1,0.7972,ST,easy,3
086SSAI,1,right,1,1.5084,ST,easy,4
086SSAI,0,left,1,0.8675,ST,easy,5
086SSAI,0,left,1,0.7726,ST,easy,6
086SSAI,0,left,1,1.1273,ST,easy,7
086SSAI,0,left,1,1.0685,ST,easy,8
086SSAI,1,right,1,2.0074,ST,easy,9
086SSAI,1,right,1,1.9735,ST,easy,10
086SSAI,0,left,1,0.7293,ST,easy,11
086SSAI,0,left,1,0.8747,ST,easy,12
086SSAI,0,left,1,1.6791,ST,easy,13
086SSAI,1,right,1,1.0733,ST,easy,14
086SSAI,1,right,1,1.1228,ST,easy,15
086SSAI,1,right,1,1.009,ST,easy,16
086SSAI,1,left,0,1.5244,ST,hard,1
086SSAI,0,left,1,1.0638,ST,hard,2
086SSAI,1,right,1,0.8979,ST,hard,3
086SSAI,0,left,1,1.0335,ST,hard,4
086SSAI,0,left,1,0.7238,ST,hard,5
086SSAI,1,left,0,1.416,ST,hard,6
086SSAI,1,right,1,0.7808,ST,hard,7
086SSAI,1,right,1,1.7521,ST,hard,8
086SSAI,0,left,1,0.8815,ST,hard,9
086SSAI,1,left,0,1.0001,ST,hard,10
086SSAI,0,left,1,0.8443,ST,hard,11
086SSAI,1,right,1,1.2084,ST,hard,12
086SSAI,1,right,1,0.8726,ST,hard,13
086SSAI,0,right,0,0.9336,ST,hard,14
086SSAI,0,left,1,0.9643,ST,hard,15
086SSAI,0,left,1,1.3502,ST,hard,16
086SSAI,0,left,1,0.9624,ST,medium,1
086SSAI,1,left,0,1.2517,ST,medium,2
086SSAI,1,right,1,1.1902,ST,medium,3
086SSAI,1,right,1,0.9959,ST,medium,4
086SSAI,1,right,1,0.9969,ST,medium,5
086SSAI,1,right,1,0.8706,ST,medium,6
086SSAI,0,left,1,0.8416,ST,medium,7
086SSAI,1,right,1,2.3872,ST,medium,8
086SSAI,1,right,1,2.2254,ST,medium,9
086SSAI,1,right,1,0.8335,ST,medium,10
