resp_MR_easy_2.keys,resp_MR_easy_2.corr,resp_MR_easy_2.rt,space_perehod_MRtrain.keys,space_perehod_MRtrain.rt,training_MR.thisRepN,training_MR.thisTrialN,training_MR.thisN,training_MR.thisIndex,training_MR.ran,train_stim,train_base,train_correctAns,Индивидуальный_код,date,expName,psychopyVersion,OS,frameRate,key_resp_SE_2.keys,key_resp_SE_2.corr,key_resp_SE_2.rt,space_perehod_STtrain.keys,space_perehod_STtrain.rt,train_sternberg.thisRepN,train_sternberg.thisTrialN,train_sternberg.thisN,train_sternberg.thisIndex,train_sternberg.ran,resp1_2.text,resp2_2.text,resp3_2.text,mouse_MSe_2.x,mouse_MSe_2.y,mouse_MSe_2.leftButton,mouse_MSe_2.midButton,mouse_MSe_2.rightButton,mouse_MSe_2.time,mouse_MSe_2.clicked_name,train_MS.thisRepN,train_MS.thisTrialN,train_MS.thisN,train_MS.thisIndex,train_MS.ran,train_noun1,train_noun2,train_noun3,slider.response,slider.rt,tlx_training.thisRepN,tlx_training.thisTrialN,tlx_training.thisN,tlx_training.thisIndex,tlx_training.ran,head,question,left,right,sequence,target_present,control,task_type,task_level,T/Q,key_resp_SE.keys,key_resp_SE.corr,key_resp_SE.rt,space_perehod_SE.keys,space_perehod_SE.rt,sternberg_easy_loop.thisRepN,sternberg_easy_loop.thisTrialN,sternberg_easy_loop.thisN,sternberg_easy_loop.thisIndex,sternberg_easy_loop.ran,nasa_tlx_loop_Se.thisRepN,nasa_tlx_loop_Se.thisTrialN,nasa_tlx_loop_Se.thisN,nasa_tlx_loop_Se.thisIndex,nasa_tlx_loop_Se.ran,Se.thisRepN,Se.thisTrialN,Se.thisN,Se.thisIndex,Se.ran,all.thisRepN,all.thisTrialN,all.thisN,all.thisIndex,all.ran,E_rotation,M_rotation,H_rotation,E_span,M_span,H_span,E_Sternberg,M_Sternberg,H_Sternberg,noun1,noun2,noun3,noun4,noun5,noun6,noun7,resp1_MSh.text,resp2_MSh.text,resp3_MSh.text,resp4_MSh.text,resp5_MSh.text,resp6_MSh.text,resp7_MSh.text,mouse_MSh.x,mouse_MSh.y,mouse_MSh.leftButton,mouse_MSh.midButton,mouse_MSh.rightButton,mouse_MSh.time,mouse_MSh.clicked_name,MS_hard.thisRepN,MS_hard.thisTrialN,MS_hard.thisN,MS_hard.thisIndex,MS_hard.ran,nasa_tlx_loop_MSh.thisRepN,nasa_tlx_loop_MSh.thisTrialN,nasa_tlx_loop_MSh.thisN,nasa_tlx_loop_MSh.thisIndex,nasa_tlx_loop_MSh.ran,MSh.thisRepN,MSh.thisTrialN,MSh.thisN,MSh.thisIndex,MSh.ran,resp1_MSm.text,resp2_MSm.text,resp3_MSm.text,resp4_MSm.text,resp5_MSm.text,mouse_MSm.x,mouse_MSm.y,mouse_MSm.leftButton,mouse_MSm.midButton,mouse_MSm.rightButton,mouse_MSm.time,mouse_MSm.clicked_name,MS_medium.thisRepN,MS_medium.thisTrialN,MS_medium.thisN,MS_medium.thisIndex,MS_medium.ran
left,0,3.786,space,4.908,0,0,0,1,1,images/training/1_a_x_180_y_0_z_0.png,images/training/1_a_x_180_y_0_z_135.png,right,028ARAA,2023-04-24_14h06.54.379,entire_exp,2022.1.1,Win32,60.0240096,,,,,,,,,,,,,,,,,,,,,,,,,,,,,,,,,,,,,,,,,,,,,,,,,,,,,,,,,,,,,,,,,,,,,,,,,,,,,,,,,,,,,,,,,,,,,,,,,,,,,,,,,,,,,,,,,,,,,,,,,,,,,,,,,,,,
left,1,1.752,space,2.234,0,1,1,0,1,images/training/10_b_x_180_y_0_z_0.png,images/training/10_a_x_180_y_0_z_45.png,left,028ARAA,2023-04-24_14h06.54.379,entire_exp,2022.1.1,Win32,60.0240096,,,,,,,,,,,,,,,,,,,,,,,,,,,,,,,,,,,,,,,,,,,,,,,,,,,,,,,,,,,,,,,,,,,,,,,,,,,,,,,,,,,,,,,,,,,,,,,,,,,,,,,,,,,,,,,,,,,,,,,,,,,,,,,,,,,,
right,0,6.495,space,1.184,0,2,2,2,1,images/training/2_a_x_135_y_45_z_315.png,images/training/2_b_x_135_y_135_z_315.png,left,028ARAA,2023-04-24_14h06.54.379,entire_exp,2022.1.1,Win32,60.0240096,,,,,,,,,,,,,,,,,,,,,,,,,,,,,,,,,,,,,,,,,,,,,,,,,,,,,,,,,,,,,,,,,,,,,,,,,,,,,,,,,,,,,,,,,,,,,,,,,,,,,,,,,,,,,,,,,,,,,,,,,,,,,,,,,,,,
,,,,,,,,,,,,,028ARAA,2023-04-24_14h06.54.379,entire_exp,2022.1.1,Win32,60.0240096,left,1,1.842,space,1.805,0,0,0,0,1,,,,,,,,,,,,,,,,,,,,,,,,,,,,,,,,,,,,,,,,,,,,,,,,,,,,,,,,,,,,,,,,,,,,,,,,,,,,,,,,,,,,,,,,,,,,,,,,,,,,,,,,,,,,,,,,,,,,,,,,,,
,,,,,,,,,,,,,028ARAA,2023-04-24_14h06.54.379,entire_exp,2022.1.1,Win32,60.0240096,left,1,1.049,space,1.742,1,0,1,0,1,,,,,,,,,,,,,,,,,,,,,,,,,,,,,,,,,,,,,,,,,,,,,,,,,,,,,,,,,,,,,,,,,,,,,,,,,,,,,,,,,,,,,,,,,,,,,,,,,,,,,,,,,,,,,,,,,,,,,,,,,,
,,,,,,,,,,,,,028ARAA,2023-04-24_14h06.54.379,entire_exp,2022.1.1,Win32,60.0240096,right,1,2.277,space,0.856,2,0,2,0,1,,,,,,,,,,,,,,,,,,,,,,,,,,,,,,,,,,,,,,,,,,,,,,,,,,,,,,,,,,,,,,,,,,,,,,,,,,,,,,,,,,,,,,,,,,,,,,,,,,,,,,,,,,,,,,,,,,,,,,,,,,
,,,,,,,,,,,,,028ARAA,2023-04-24_14h06.54.379,entire_exp,2022.1.1,Win32,60.0240096,,,,,,,,,,,письмо,среда,хоккей,-0.015740741,-0.384259259,1,0,0,23.027,dalee_polygon,0,0,0,2,1,письмо,среда,хоккей,,,,,,,,,,,,,,,,,,,,,,,,,,,,,,,,,,,,,,,,,,,,,,,,,,,,,,,,,,,,,,,,,,,,,,,,,,,,,,,,,,,,,,,,,,,,,,,,,,,,,,,,
,,,,,,,,,,,,,028ARAA,2023-04-24_14h06.54.379,entire_exp,2022.1.1,Win32,60.0240096,,,,,,,,,,,магазин,сюжет,бумага,0.015740741,-0.393518519,1,0,0,15.106,dalee_polygon,0,1,1,1,1,магазин,сюжет,бумага,,,,,,,,,,,,,,,,,,,,,,,,,,,,,,,,,,,,,,,,,,,,,,,,,,,,,,,,,,,,,,,,,,,,,,,,,,,,,,,,,,,,,,,,,,,,,,,,,,,,,,,,
,,,,,,,,,,,,,028ARAA,2023-04-24_14h06.54.379,entire_exp,2022.1.1,Win32,60.0240096,,,,,,,,,,,здание,фраза,оплата,-0.000925926,-0.375,1,0,0,11.545,dalee_polygon,0,2,2,0,1,здание,фраза,оплата,,,,,,,,,,,,,,,,,,,,,,,,,,,,,,,,,,,,,,,,,,,,,,,,,,,,,,,,,,,,,,,,,,,,,,,,,,,,,,,,,,,,,,,,,,,,,,,,,,,,,,,,
,,,,,,,,,,,,,028ARAA,2023-04-24_14h06.54.379,entire_exp,2022.1.1,Win32,60.0240096,,,,,,,,,,,,,,,,,,,,,,,,,,,,,14.9037037,10.605,0,0,0,0,1,Умственная нагрузка,"Как много умственных усилий, как вам показалось на первый взгляд, требовалось для выполнения задания? (при размышлении, принятия решений, запоминании, поиске и др.) Задание было легким или трудным, простым или сложным, изнурительным или щадящим?",Низкая,Высокая,,,,,,,,,,,,,,,,,,,,,,,,,,,,,,,,,,,,,,,,,,,,,,,,,,,,,,,,,,,,,,,,,,,,,,,,,,,,,,,,,,,,,,,,,,,,,
,,,,,,,,,,,,,028ARAA,2023-04-24_14h06.54.379,entire_exp,2022.1.1,Win32,60.0240096,,,,,,,,,,,,,,,,,,,,,,,,,,,,,5.925925926,9.535,0,1,1,1,1,Физическая нагрузка,"Как много физических усилий, как вам показалось на первый взгляд, пришлось приложить для выполнения задания (например, бег, прыжки, тяга, толкание, вращения и др.)? Задание было легким или трудным, неспешным или оживлённым, спокойным или напряженным, расслабленным или утомительным?",Низкая,Высокая,,,,,,,,,,,,,,,,,,,,,,,,,,,,,,,,,,,,,,,,,,,,,,,,,,,,,,,,,,,,,,,,,,,,,,,,,,,,,,,,,,,,,,,,,,,,,
,,,,,,,,,,,,,028ARAA,2023-04-24_14h06.54.379,entire_exp,2022.1.1,Win32,60.0240096,,,,,,,,,,,,,,,,,,,,,,,,,,,,,12,5.754,0,2,2,2,1,Давление времени,"Насколько сильно ощущалась нехватка времени при выполнении задания? Был ли ход выполнения спокойным и неторопливым или, наоборот, быстрым и бурным?",Слабое,Сильное,,,,,,,,,,,,,,,,,,,,,,,,,,,,,,,,,,,,,,,,,,,,,,,,,,,,,,,,,,,,,,,,,,,,,,,,,,,,,,,,,,,,,,,,,,,,,
,,,,,,,,,,,,,028ARAA,2023-04-24_14h06.54.379,entire_exp,2022.1.1,Win32,60.0240096,,,,,,,,,,,,,,,,,,,,,,,,,,,,,13.8962963,9.396,0,3,3,3,1,Успешность выполнения,"Как вы думаете, насколько успешно было выполнено задание? Насколько вы довольны ходом выполнения задания?",Совсем не выполнено,Полностью выполнено,,,,,,,,,,,,,,,,,,,,,,,,,,,,,,,,,,,,,,,,,,,,,,,,,,,,,,,,,,,,,,,,,,,,,,,,,,,,,,,,,,,,,,,,,,,,,
,,,,,,,,,,,,,028ARAA,2023-04-24_14h06.54.379,entire_exp,2022.1.1,Win32,60.0240096,,,,,,,,,,,,,,,,,,,,,,,,,,,,,13.03703704,5.435,0,4,4,4,1,Усилия,Сколько усилий на самом деле вы приложили для выполнения задания (умственных и/или физических) для достигнутого вами результата?,Мало,Много,,,,,,,,,,,,,,,,,,,,,,,,,,,,,,,,,,,,,,,,,,,,,,,,,,,,,,,,,,,,,,,,,,,,,,,,,,,,,,,,,,,,,,,,,,,,,
,,,,,,,,,,,,,028ARAA,2023-04-24_14h06.54.379,entire_exp,2022.1.1,Win32,60.0240096,,,,,,,,,,,,,,,,,,,,,,,,,,,,,12.93333333,6.868,0,5,5,5,1,Уровень фрустрации,"Насколько неуверенно в себе, разочарованно, раздраженно или напряженно вы чувствовали себя в ходе выполнения задания? Или же наоборот, вы были уверенны в себе, а выполнение задания было приятным и расслабленным?",Низкий,Высокий,,,,,,,,,,,,,,,,,,,,,,,,,,,,,,,,,,,,,,,,,,,,,,,,,,,,,,,,,,,,,,,,,,,,,,,,,,,,,,,,,,,,,,,,,,,,,
,,,,,,,,,,,,,028ARAA,2023-04-24_14h06.54.379,entire_exp,2022.1.1,Win32,60.0240096,,,,,,,,,,,,,,,,,,,,,,,,,,,,,,,,,,,,,,,,Ц  Ш  С  Ж,0,Ф,sternberg,1,T,left,1,3.729,space,2.22,0,0,0,0,1,,,,,,,,,,,,,,,,,,,,,,,,,,,,,,,,,,,,,,,,,,,,,,,,,,,,,,,,,,,,,,,,,,,,,,,,,,,,,
,,,,,,,,,,,,,028ARAA,2023-04-24_14h06.54.379,entire_exp,2022.1.1,Win32,60.0240096,,,,,,,,,,,,,,,,,,,,,,,,,,,,,,,,,,,,,,,,М  Щ  П  З,0,Ч,sternberg,1,T,left,1,2.866,space,0.95,1,0,1,0,1,,,,,,,,,,,,,,,,,,,,,,,,,,,,,,,,,,,,,,,,,,,,,,,,,,,,,,,,,,,,,,,,,,,,,,,,,,,,,
,,,,,,,,,,,,,028ARAA,2023-04-24_14h06.54.379,entire_exp,2022.1.1,Win32,60.0240096,,,,,,,,,,,,,,,,,,,,,,,,,,,,,,,,,,,,,,,,Щ  М  Д  Р,1,Щ,sternberg,1,T,right,1,2.315,space,1.076,2,0,2,0,1,,,,,,,,,,,,,,,,,,,,,,,,,,,,,,,,,,,,,,,,,,,,,,,,,,,,,,,,,,,,,,,,,,,,,,,,,,,,,
,,,,,,,,,,,,,028ARAA,2023-04-24_14h06.54.379,entire_exp,2022.1.1,Win32,60.0240096,,,,,,,,,,,,,,,,,,,,,,,,,,,,,,,,,,,,,,,,Й  Ц  Ж  В,1,В,sternberg,1,T,right,1,1.833,space,0.599,3,0,3,0,1,,,,,,,,,,,,,,,,,,,,,,,,,,,,,,,,,,,,,,,,,,,,,,,,,,,,,,,,,,,,,,,,,,,,,,,,,,,,,
,,,,,,,,,,,,,028ARAA,2023-04-24_14h06.54.379,entire_exp,2022.1.1,Win32,60.0240096,,,,,,,,,,,,,,,,,,,,,,,,,,,,,,,,,,,,,,,,Д  С  Л  Ш,0,П,sternberg,1,T,left,1,4.48,space,0.75,4,0,4,0,1,,,,,,,,,,,,,,,,,,,,,,,,,,,,,,,,,,,,,,,,,,,,,,,,,,,,,,,,,,,,,,,,,,,,,,,,,,,,,
,,,,,,,,,,,,,028ARAA,2023-04-24_14h06.54.379,entire_exp,2022.1.1,Win32,60.0240096,,,,,,,,,,,,,,,,,,,,,,,,,,,,,,,,,,,,,,,,Г  Ж  П  Б,1,Ж,sternberg,1,T,right,1,1.066,space,0.764,5,0,5,0,1,,,,,,,,,,,,,,,,,,,,,,,,,,,,,,,,,,,,,,,,,,,,,,,,,,,,,,,,,,,,,,,,,,,,,,,,,,,,,
,,,,,,,,,,,,,028ARAA,2023-04-24_14h06.54.379,entire_exp,2022.1.1,Win32,60.0240096,,,,,,,,,,,,,,,,,,,,,,,,,,,,,,,,,,,,,,,,Ч  Ц  Ф  Ж,0,Л,sternberg,1,T,left,1,2.849,space,0.715,6,0,6,0,1,,,,,,,,,,,,,,,,,,,,,,,,,,,,,,,,,,,,,,,,,,,,,,,,,,,,,,,,,,,,,,,,,,,,,,,,,,,,,
,,,,,,,,,,,,,028ARAA,2023-04-24_14h06.54.379,entire_exp,2022.1.1,Win32,60.0240096,,,,,,,,,,,,,,,,,,,,,,,,,,,,,,,,,,,,,,,,Ш  Д  Ж  Ч,1,Ж,sternberg,1,T,right,1,1.426,space,0.671,7,0,7,0,1,,,,,,,,,,,,,,,,,,,,,,,,,,,,,,,,,,,,,,,,,,,,,,,,,,,,,,,,,,,,,,,,,,,,,,,,,,,,,
,,,,,,,,,,,,,028ARAA,2023-04-24_14h06.54.379,entire_exp,2022.1.1,Win32,60.0240096,,,,,,,,,,,,,,,,,,,,,,,,,,,,,,,,,,,,,,,,Г  С  П  Ч,1,С,sternberg,1,T,right,1,1.082,space,0.332,8,0,8,0,1,,,,,,,,,,,,,,,,,,,,,,,,,,,,,,,,,,,,,,,,,,,,,,,,,,,,,,,,,,,,,,,,,,,,,,,,,,,,,
,,,,,,,,,,,,,028ARAA,2023-04-24_14h06.54.379,entire_exp,2022.1.1,Win32,60.0240096,,,,,,,,,,,,,,,,,,,,,,,,,,,,,,,,,,,,,,,,К  Д  Г  В,1,Г,sternberg,1,T,right,1,0.899,space,0.299,9,0,9,0,1,,,,,,,,,,,,,,,,,,,,,,,,,,,,,,,,,,,,,,,,,,,,,,,,,,,,,,,,,,,,,,,,,,,,,,,,,,,,,
,,,,,,,,,,,,,028ARAA,2023-04-24_14h06.54.379,entire_exp,2022.1.1,Win32,60.0240096,,,,,,,,,,,,,,,,,,,,,,,,,,,,,,,,,,,,,,,,Х  Б  З  Ж,1,Х,sternberg,1,T,right,1,1.246,space,0.399,10,0,10,0,1,,,,,,,,,,,,,,,,,,,,,,,,,,,,,,,,,,,,,,,,,,,,,,,,,,,,,,,,,,,,,,,,,,,,,,,,,,,,,
,,,,,,,,,,,,,028ARAA,2023-04-24_14h06.54.379,entire_exp,2022.1.1,Win32,60.0240096,,,,,,,,,,,,,,,,,,,,,,,,,,,,,,,,,,,,,,,,Й  В  Г  М,0,С,sternberg,1,T,left,1,3.632,space,0.481,11,0,11,0,1,,,,,,,,,,,,,,,,,,,,,,,,,,,,,,,,,,,,,,,,,,,,,,,,,,,,,,,,,,,,,,,,,,,,,,,,,,,,,
,,,,,,,,,,,,,028ARAA,2023-04-24_14h06.54.379,entire_exp,2022.1.1,Win32,60.0240096,,,,,,,,,,,,,,,,,,,,,,,,,,,,,,,,,,,,,,,,Д  Л  Ц  Х,0,С,sternberg,1,T,left,1,3.334,space,0.331,12,0,12,0,1,,,,,,,,,,,,,,,,,,,,,,,,,,,,,,,,,,,,,,,,,,,,,,,,,,,,,,,,,,,,,,,,,,,,,,,,,,,,,
,,,,,,,,,,,,,028ARAA,2023-04-24_14h06.54.379,entire_exp,2022.1.1,Win32,60.0240096,,,,,,,,,,,,,,,,,,,,,,,,,,,,,,,,,,,,,,,,Й  Д  Н  Ч,0,Л,sternberg,1,T,left,1,2.354,space,0.474,13,0,13,0,1,,,,,,,,,,,,,,,,,,,,,,,,,,,,,,,,,,,,,,,,,,,,,,,,,,,,,,,,,,,,,,,,,,,,,,,,,,,,,
,,,,,,,,,,,,,028ARAA,2023-04-24_14h06.54.379,entire_exp,2022.1.1,Win32,60.0240096,,,,,,,,,,,,,,,,,,,,,,,,,,,,,,,,,,,,,,,,Ц  Ж  Д  Й,1,Д,sternberg,1,T,right,1,1.492,space,1.147,14,0,14,0,1,,,,,,,,,,,,,,,,,,,,,,,,,,,,,,,,,,,,,,,,,,,,,,,,,,,,,,,,,,,,,,,,,,,,,,,,,,,,,
,,,,,,,,,,,,,028ARAA,2023-04-24_14h06.54.379,entire_exp,2022.1.1,Win32,60.0240096,,,,,,,,,,,,,,,,,,,,,,,,,,,,,,,,,,,,,,,,В  Ж  К  Ф,0,П,sternberg,1,T,left,1,2.733,space,0.398,15,0,15,0,1,,,,,,,,,,,,,,,,,,,,,,,,,,,,,,,,,,,,,,,,,,,,,,,,,,,,,,,,,,,,,,,,,,,,,,,,,,,,,
,,,,,,,,,,,,,028ARAA,2023-04-24_14h06.54.379,entire_exp,2022.1.1,Win32,60.0240096,,,,,,,,,,,,,,,,,,,,,,,,,,,,,15.92592593,10.646,,,,,,Умственная нагрузка,"Как много умственных усилий, как вам показалось на первый взгляд, требовалось для выполнения задания?",Низкая,Высокая,,,,sternberg,1,Q,,,,,,,,,,,0,0,0,0,1,,,,,,,,,,,,,,,,,,,,,,,,,,,,,,,,,,,,,,,,,,,,,,,,,,,,,,,,,,,,,,,,,,,,,,,,
,,,,,,,,,,,,,028ARAA,2023-04-24_14h06.54.379,entire_exp,2022.1.1,Win32,60.0240096,,,,,,,,,,,,,,,,,,,,,,,,,,,,,4.948148148,7.679,,,,,,Физическая нагрузка,"Как много физических усилий, как вам показалось на первый взгляд, пришлось приложить для выполнения задания?",Низкая,Высокая,,,,sternberg,1,Q,,,,,,,,,,,0,1,1,1,1,,,,,,,,,,,,,,,,,,,,,,,,,,,,,,,,,,,,,,,,,,,,,,,,,,,,,,,,,,,,,,,,,,,,,,,,
,,,,,,,,,,,,,028ARAA,2023-04-24_14h06.54.379,entire_exp,2022.1.1,Win32,60.0240096,,,,,,,,,,,,,,,,,,,,,,,,,,,,,11.95555556,3.104,,,,,,Давление времени,"Нужно было торопиться, чтобы выполнить задание, или можно было работать в своём темпе?",Слабое,Сильное,,,,sternberg,1,Q,,,,,,,,,,,0,2,2,2,1,,,,,,,,,,,,,,,,,,,,,,,,,,,,,,,,,,,,,,,,,,,,,,,,,,,,,,,,,,,,,,,,,,,,,,,,
,,,,,,,,,,,,,028ARAA,2023-04-24_14h06.54.379,entire_exp,2022.1.1,Win32,60.0240096,,,,,,,,,,,,,,,,,,,,,,,,,,,,,13.8962963,3.811,,,,,,Успешность выполнения,"Как вы думаете, насколько успешно было выполнено задание?",Совсем не выполнено,Полностью выполнено,,,,sternberg,1,Q,,,,,,,,,,,0,3,3,3,1,,,,,,,,,,,,,,,,,,,,,,,,,,,,,,,,,,,,,,,,,,,,,,,,,,,,,,,,,,,,,,,,,,,,,,,,
,,,,,,,,,,,,,028ARAA,2023-04-24_14h06.54.379,entire_exp,2022.1.1,Win32,60.0240096,,,,,,,,,,,,,,,,,,,,,,,,,,,,,15.00740741,2.924,,,,,,Усилия,Сколько усилий на самом деле вы приложили для выполнения задания?,Мало,Много,,,,sternberg,1,Q,,,,,,,,,,,0,4,4,4,1,,,,,,,,,,,,,,,,,,,,,,,,,,,,,,,,,,,,,,,,,,,,,,,,,,,,,,,,,,,,,,,,,,,,,,,,
,,,,,,,,,,,,,028ARAA,2023-04-24_14h06.54.379,entire_exp,2022.1.1,Win32,60.0240096,,,,,,,,,,,,,,,,,,,,,,,,,,,,,10.96296296,3.691,,,,,,Уровень фрустрации,Насколько напряженным и раздражающим было задание?,Низкий,Высокий,,,,sternberg,1,Q,,,,,,,,,,,0,5,5,5,1,,,,,,,,,,,,,,,,,,,,,,,,,,,,,,,,,,,,,,,,,,,,,,,,,,,,,,,,,,,,,,,,,,,,,,,,
,,,,,,,,,,,,,028ARAA,2023-04-24_14h06.54.379,entire_exp,2022.1.1,Win32,60.0240096,,,,,,,,,,,,,,,,,,,,,,,,,,,,,,,,,,,,,,,,,,,,,,,,,,,,,,,,,,,,,0,0,0,0,1,,,,,,,,,,,,,,,,,,,,,,,,,,,,,,,,,,,,,,,,,,,,,,,,,,,,,,,,,,,,,,,,,,,
,,,,,,,,,,,,,028ARAA,2023-04-24_14h06.54.379,entire_exp,2022.1.1,Win32,60.0240096,,,,,,,,,,,,,,,,,,,,,,,,,,,,,,,,,,,,,,,,,,,,,,,,,,,,,,,,,,,,,,,,,,0,0,0,6,1,0,0,0,0,0,0,1,0,0,,,,,,,,,,,,,,,,,,,,,,,,,,,,,,,,,,,,,,,,,,,,,,,,,,,,,
,,,,,,,,,,,,,028ARAA,2023-04-24_14h06.54.379,entire_exp,2022.1.1,Win32,60.0240096,,,,,,,,,,,,,,,,,,,,,,,,,,,,,,,,,,,,,,,,,,,mental_span,3,T,,,,,,,,,,,,,,,,,,,,,,,,,,,,,,,,,,,козел,костыль,варежка,салфетка,свиток,капуста,веер,козел,костыль,варежка,,,,веер,-0.00462963,-0.388888889,1,0,0,22.086,dalee_polygon_h,0,0,0,0,1,,,,,,,,,,,,,,,,,,,,,,,,,,,
,,,,,,,,,,,,,028ARAA,2023-04-24_14h06.54.379,entire_exp,2022.1.1,Win32,60.0240096,,,,,,,,,,,,,,,,,,,,,,,,,,,,,,,,,,,,,,,,,,,mental_span,3,T,,,,,,,,,,,,,,,,,,,,,,,,,,,,,,,,,,,рубашка,трамвай,щетка,собака,лейка,карман,церковь,рубашка,трамвай,щетка,лейка,,карман,церковь,-0.055555556,-0.413888889,1,0,0,31.949,dalee_polygon_h,1,0,1,0,1,,,,,,,,,,,,,,,,,,,,,,,,,,,
,,,,,,,,,,,,,028ARAA,2023-04-24_14h06.54.379,entire_exp,2022.1.1,Win32,60.0240096,,,,,,,,,,,,,,,,,,,,,,,,,,,,,,,,,,,,,,,,,,,mental_span,3,T,,,,,,,,,,,,,,,,,,,,,,,,,,,,,,,,,,,водолаз,ананас,замок,чайник,шоколад,каска,таракан,водолаз,ананас,,,,чайник,таракан,-0.016666667,-0.405555556,1,0,0,29.73,dalee_polygon_h,2,0,2,0,1,,,,,,,,,,,,,,,,,,,,,,,,,,,
,,,,,,,,,,,,,028ARAA,2023-04-24_14h06.54.379,entire_exp,2022.1.1,Win32,60.0240096,,,,,,,,,,,,,,,,,,,,,,,,,,,,,,,,,,,,,,,,,,,mental_span,3,T,,,,,,,,,,,,,,,,,,,,,,,,,,,,,,,,,,,свеча,стакан,печенье,замок,варежка,петух,календарь,свеча,стакан,печенье,замок,варежка,петух,календарь,0.013888889,-0.388888889,1,0,0,28.93,dalee_polygon_h,3,0,3,0,1,,,,,,,,,,,,,,,,,,,,,,,,,,,
,,,,,,,,,,,,,028ARAA,2023-04-24_14h06.54.379,entire_exp,2022.1.1,Win32,60.0240096,,,,,,,,,,,,,,,,,,,,,,,,,,,,,,,,,,,,,,,,,,,mental_span,3,T,,,,,,,,,,,,,,,,,,,,,,,,,,,,,,,,,,,стакан,унитаз,трубка,клубника,крыса,лягушка,матрос,стакан,унитаз,трубка,,крыса,лягушка,матрос,0,-0.387962963,1,0,0,34.123,dalee_polygon_h,4,0,4,0,1,,,,,,,,,,,,,,,,,,,,,,,,,,,
,,,,,,,,,,,,,028ARAA,2023-04-24_14h06.54.379,entire_exp,2022.1.1,Win32,60.0240096,,,,,,,,,,,,,,,,,,,,,,,,,,,,,,,,,,,,,,,,,,,mental_span,3,T,,,,,,,,,,,,,,,,,,,,,,,,,,,,,,,,,,,гантеля,змея,антенна,рюкзак,повар,колокол,солнце,гантеля,змея,антенна,рюкзак,повар,солнце,колокол,0,-0.383333333,1,0,0,32.614,dalee_polygon_h,5,0,5,0,1,,,,,,,,,,,,,,,,,,,,,,,,,,,
,,,,,,,,,,,,,028ARAA,2023-04-24_14h06.54.379,entire_exp,2022.1.1,Win32,60.0240096,,,,,,,,,,,,,,,,,,,,,,,,,,,,,,,,,,,,,,,,,,,mental_span,3,T,,,,,,,,,,,,,,,,,,,,,,,,,,,,,,,,,,,деньги,отвертка,чемодан,лягушка,катушка,фонарь,карета,деньги,отвертка,чемодан,,,фонарь,карета,-0.007407407,-0.394444444,1,0,0,21.754,dalee_polygon_h,6,0,6,0,1,,,,,,,,,,,,,,,,,,,,,,,,,,,
,,,,,,,,,,,,,028ARAA,2023-04-24_14h06.54.379,entire_exp,2022.1.1,Win32,60.0240096,,,,,,,,,,,,,,,,,,,,,,,,,,,,,,,,,,,,,,,,,,,mental_span,3,T,,,,,,,,,,,,,,,,,,,,,,,,,,,,,,,,,,,антенна,грибы,труба,веревка,трусы,сирень,ящик,антенна,ящик,труба,веревка,трусы,,,0.007407407,-0.398148148,1,0,0,19.421,dalee_polygon_h,7,0,7,0,1,,,,,,,,,,,,,,,,,,,,,,,,,,,
,,,,,,,,,,,,,028ARAA,2023-04-24_14h06.54.379,entire_exp,2022.1.1,Win32,60.0240096,,,,,,,,,,,,,,,,,,,,,,,,,,,,,,,,,,,,,,,,,,,mental_span,3,T,,,,,,,,,,,,,,,,,,,,,,,,,,,,,,,,,,,креветка,кувшин,кролик,гитара,яйцо,лампа,замок,креветка,кувшин,кролик,гитара,яйцо,лампа,замок,-0.049074074,-0.390740741,1,0,0,33.242,dalee_polygon_h,8,0,8,0,1,,,,,,,,,,,,,,,,,,,,,,,,,,,
,,,,,,,,,,,,,028ARAA,2023-04-24_14h06.54.379,entire_exp,2022.1.1,Win32,60.0240096,,,,,,,,,,,,,,,,,,,,,,,,,,,,,,,,,,,,,,,,,,,mental_span,3,T,,,,,,,,,,,,,,,,,,,,,,,,,,,,,,,,,,,замок,колба,кукла,пилка,веревка,статуя,лошадь,,колба,кукла,пилка,веревка,статуя,лошадь,-0.058333333,-0.387962963,1,0,0,27.417,dalee_polygon_h,9,0,9,0,1,,,,,,,,,,,,,,,,,,,,,,,,,,,
,,,,,,,,,,,,,028ARAA,2023-04-24_14h06.54.379,entire_exp,2022.1.1,Win32,60.0240096,,,,,,,,,,,,,,,,,,,,,,,,,,,,,,,,,,,,,,,,,,,mental_span,3,T,,,,,,,,,,,,,,,,,,,,,,,,,,,,,,,,,,,пилка,солонка,отвертка,лейка,белка,вишня,виноград,,пилка,отвертка,лейка,белка,вишня,виноград,-0.068518519,-0.406481481,1,0,0,36.276,dalee_polygon_h,10,0,10,0,1,,,,,,,,,,,,,,,,,,,,,,,,,,,
,,,,,,,,,,,,,028ARAA,2023-04-24_14h06.54.379,entire_exp,2022.1.1,Win32,60.0240096,,,,,,,,,,,,,,,,,,,,,,,,,,,,,,,,,,,,,,,,,,,mental_span,3,T,,,,,,,,,,,,,,,,,,,,,,,,,,,,,,,,,,,рупор,почка,корона,лампа,свиток,звезда,перец,рупор,почка,корона,лампа,свиток,звезда,перец,-0.023148148,-0.377777778,1,0,0,24.467,dalee_polygon_h,11,0,11,0,1,,,,,,,,,,,,,,,,,,,,,,,,,,,
,,,,,,,,,,,,,028ARAA,2023-04-24_14h06.54.379,entire_exp,2022.1.1,Win32,60.0240096,,,,,,,,,,,,,,,,,,,,,,,,,,,,,,,,,,,,,,,,,,,mental_span,3,T,,,,,,,,,,,,,,,,,,,,,,,,,,,,,,,,,,,терка,барабан,люстра,лестница,кенгуру,сумка,скелет,терка,барабан,,лестница,кенгуру,сумка,скелет,-0.063888889,-0.405555556,1,0,0,28.003,dalee_polygon_h,12,0,12,0,1,,,,,,,,,,,,,,,,,,,,,,,,,,,
,,,,,,,,,,,,,028ARAA,2023-04-24_14h06.54.379,entire_exp,2022.1.1,Win32,60.0240096,,,,,,,,,,,,,,,,,,,,,,,,,,,,,,,,,,,,,,,,,,,mental_span,3,T,,,,,,,,,,,,,,,,,,,,,,,,,,,,,,,,,,,крыса,грабли,колодец,скорпион,солдат,лейка,половник,,,колодец,скорпион,солдат,лейка,половник,-0.032407407,-0.419444444,1,0,0,21.715,dalee_polygon_h,13,0,13,0,1,,,,,,,,,,,,,,,,,,,,,,,,,,,
,,,,,,,,,,,,,028ARAA,2023-04-24_14h06.54.379,entire_exp,2022.1.1,Win32,60.0240096,,,,,,,,,,,,,,,,,,,,,,,,,,,,,,,,,,,,,,,,,,,mental_span,3,T,,,,,,,,,,,,,,,,,,,,,,,,,,,,,,,,,,,камин,пирожок,бритва,миска,колодец,солдат,корыто,камин,пирожок,бритва,миска,колодец,солдат,корыто,-0.042592593,-0.413888889,1,0,0,20.862,dalee_polygon_h,14,0,14,0,1,,,,,,,,,,,,,,,,,,,,,,,,,,,
,,,,,,,,,,,,,028ARAA,2023-04-24_14h06.54.379,entire_exp,2022.1.1,Win32,60.0240096,,,,,,,,,,,,,,,,,,,,,,,,,,,,,,,,,,,,,,,,,,,mental_span,3,T,,,,,,,,,,,,,,,,,,,,,,,,,,,,,,,,,,,термос,трубка,огурец,рояль,тельняшка,арбуз,жираф,термос,трубка,огурец,рояль,тельняшка,арбуз,жираф,-0.05462963,-0.412037037,1,0,0,28.893,dalee_polygon_h,15,0,15,0,1,,,,,,,,,,,,,,,,,,,,,,,,,,,
,,,,,,,,,,,,,028ARAA,2023-04-24_14h06.54.379,entire_exp,2022.1.1,Win32,60.0240096,,,,,,,,,,,,,,,,,,,,,,,,,,,,,18.99259259,3.535,,,,,,Умственная нагрузка,"Как много умственных усилий, как вам показалось на первый взгляд, требовалось для выполнения задания?",Низкая,Высокая,,,,mental_span,3,Q,,,,,,,,,,,,,,,,,,,,,,,,,,,,,,,,,,,,,,,,,,,,,,,,,,,,,,,,,,,,,0,0,0,0,1,,,,,,,,,,,,,,,,,,,,,,
,,,,,,,,,,,,,028ARAA,2023-04-24_14h06.54.379,entire_exp,2022.1.1,Win32,60.0240096,,,,,,,,,,,,,,,,,,,,,,,,,,,,,11.00740741,2.078,,,,,,Физическая нагрузка,"Как много физических усилий, как вам показалось на первый взгляд, пришлось приложить для выполнения задания?",Низкая,Высокая,,,,mental_span,3,Q,,,,,,,,,,,,,,,,,,,,,,,,,,,,,,,,,,,,,,,,,,,,,,,,,,,,,,,,,,,,,0,1,1,1,1,,,,,,,,,,,,,,,,,,,,,,
,,,,,,,,,,,,,028ARAA,2023-04-24_14h06.54.379,entire_exp,2022.1.1,Win32,60.0240096,,,,,,,,,,,,,,,,,,,,,,,,,,,,,14.97777778,9.688,,,,,,Давление времени,"Нужно было торопиться, чтобы выполнить задание, или можно было работать в своём темпе?",Слабое,Сильное,,,,mental_span,3,Q,,,,,,,,,,,,,,,,,,,,,,,,,,,,,,,,,,,,,,,,,,,,,,,,,,,,,,,,,,,,,0,2,2,2,1,,,,,,,,,,,,,,,,,,,,,,
,,,,,,,,,,,,,028ARAA,2023-04-24_14h06.54.379,entire_exp,2022.1.1,Win32,60.0240096,,,,,,,,,,,,,,,,,,,,,,,,,,,,,11.34814815,5.353,,,,,,Успешность выполнения,"Как вы думаете, насколько успешно было выполнено задание?",Совсем не выполнено,Полностью выполнено,,,,mental_span,3,Q,,,,,,,,,,,,,,,,,,,,,,,,,,,,,,,,,,,,,,,,,,,,,,,,,,,,,,,,,,,,,0,3,3,3,1,,,,,,,,,,,,,,,,,,,,,,
,,,,,,,,,,,,,028ARAA,2023-04-24_14h06.54.379,entire_exp,2022.1.1,Win32,60.0240096,,,,,,,,,,,,,,,,,,,,,,,,,,,,,17.94074074,2.857,,,,,,Усилия,Сколько усилий на самом деле вы приложили для выполнения задания?,Мало,Много,,,,mental_span,3,Q,,,,,,,,,,,,,,,,,,,,,,,,,,,,,,,,,,,,,,,,,,,,,,,,,,,,,,,,,,,,,0,4,4,4,1,,,,,,,,,,,,,,,,,,,,,,
,,,,,,,,,,,,,028ARAA,2023-04-24_14h06.54.379,entire_exp,2022.1.1,Win32,60.0240096,,,,,,,,,,,,,,,,,,,,,,,,,,,,,12.99259259,4.379,,,,,,Уровень фрустрации,Насколько напряженным и раздражающим было задание?,Низкий,Высокий,,,,mental_span,3,Q,,,,,,,,,,,,,,,,,,,,,,,,,,,,,,,,,,,,,,,,,,,,,,,,,,,,,,,,,,,,,0,5,5,5,1,,,,,,,,,,,,,,,,,,,,,,
,,,,,,,,,,,,,028ARAA,2023-04-24_14h06.54.379,entire_exp,2022.1.1,Win32,60.0240096,,,,,,,,,,,,,,,,,,,,,,,,,,,,,,,,,,,,,,,,,,,,,,,,,,,,,,,,,,,,,,,,,,,,,,,,,,,,,,,,,,,,,,,,,,,,,,,,,,,,,,,,,,,,,,,0,0,0,0,1,,,,,,,,,,,,,,,,,
,,,,,,,,,,,,,028ARAA,2023-04-24_14h06.54.379,entire_exp,2022.1.1,Win32,60.0240096,,,,,,,,,,,,,,,,,,,,,,,,,,,,,,,,,,,,,,,,,,,,,,,,,,,,,,,,,,,,,,,,,,0,1,1,5,1,0,0,0,0,0,1,0,0,0,,,,,,,,,,,,,,,,,,,,,,,,,,,,,,,,,,,,,,,,,,,,,,,,,,,,,
,,,,,,,,,,,,,028ARAA,2023-04-24_14h06.54.379,entire_exp,2022.1.1,Win32,60.0240096,,,,,,,,,,,,,,,,,,,,,,,,,,,,,,,,,,,,,,,,,,,mental_span,2,T,,,,,,,,,,,,,,,,,,,,,,,,,,,,,,,,,,,перец,конфета,дерево,грабли,ножницы,,,,,,,,,,,,,,,,,,,,,,,,,,,,,,,,перец,конфета,дерево,грабли,ножницы,-0.00462963,-0.388888889,1,0,0,20.65,dalee_polygon_m,0,0,0,0,1
,,,,,,,,,,,,,028ARAA,2023-04-24_14h06.54.379,entire_exp,2022.1.1,Win32,60.0240096,,,,,,,,,,,,,,,,,,,,,,,,,,,,,,,,,,,,,,,,,,,mental_span,2,T,,,,,,,,,,,,,,,,,,,,,,,,,,,,,,,,,,,колесо,ботинки,рыцарь,самокат,веер,,,,,,,,,,,,,,,,,,,,,,,,,,,,,,,,колесо,ботинки,рыцарь,самокат,веер,0.015740741,-0.382407407,1,0,0,19.862,dalee_polygon_m,1,0,1,0,1
