resp_MR_easy_2.keys,resp_MR_easy_2.corr,resp_MR_easy_2.rt,space_perehod_MRtrain.keys,space_perehod_MRtrain.rt,training_MR.thisRepN,training_MR.thisTrialN,training_MR.thisN,training_MR.thisIndex,training_MR.ran,train_stim,train_base,train_correctAns,Индивидуальный_код,date,expName,psychopyVersion,OS,frameRate,key_resp_SE_2.keys,key_resp_SE_2.corr,key_resp_SE_2.rt,space_perehod_STtrain.keys,space_perehod_STtrain.rt,train_sternberg.thisRepN,train_sternberg.thisTrialN,train_sternberg.thisN,train_sternberg.thisIndex,train_sternberg.ran,resp1_2.text,resp2_2.text,resp3_2.text,train_MS.thisRepN,train_MS.thisTrialN,train_MS.thisN,train_MS.thisIndex,train_MS.ran,train_noun1,train_noun2,train_noun3,slider.response,tlx_training.thisRepN,tlx_training.thisTrialN,tlx_training.thisN,tlx_training.thisIndex,tlx_training.ran,head,question,left,right,base_position,correctAns,base_pic,rotated_pic,Z,task_type,task_level,T/Q,resp_MR_easy.keys,resp_MR_easy.corr,resp_MR_easy.rt,space_perehod_MRe.keys,space_perehod_MRe.rt,MR_easy_loop.thisRepN,MR_easy_loop.thisTrialN,MR_easy_loop.thisN,MR_easy_loop.thisIndex,MR_easy_loop.ran,nasa_tlx_loop_MRe.thisRepN,nasa_tlx_loop_MRe.thisTrialN,nasa_tlx_loop_MRe.thisN,nasa_tlx_loop_MRe.thisIndex,nasa_tlx_loop_MRe.ran,MRe.thisRepN,MRe.thisTrialN,MRe.thisN,MRe.thisIndex,MRe.ran,all.thisRepN,all.thisTrialN,all.thisN,all.thisIndex,all.ran,E_rotation,M_rotation,H_rotation,E_span,M_span,H_span,E_Sternberg,M_Sternberg,H_Sternberg,noun1,noun2,noun3,noun4,noun5,noun6,noun7,resp1_MSh.text,resp2_MSh.text,resp3_MSh.text,resp4_MSh.text,resp5_MSh.text,resp6_MSh.text,resp7_MSh.text,MS_hard.thisRepN,MS_hard.thisTrialN,MS_hard.thisN,MS_hard.thisIndex,MS_hard.ran,nasa_tlx_loop_MSh.thisRepN,nasa_tlx_loop_MSh.thisTrialN,nasa_tlx_loop_MSh.thisN,nasa_tlx_loop_MSh.thisIndex,nasa_tlx_loop_MSh.ran,MSh.thisRepN,MSh.thisTrialN,MSh.thisN,MSh.thisIndex,MSh.ran,resp1_MSm.text,resp2_MSm.text,resp3_MSm.text,resp4_MSm.text,resp5_MSm.text,MS_medium.thisRepN,MS_medium.thisTrialN,MS_medium.thisN,MS_medium.thisIndex,MS_medium.ran,nasa_tlx_loop_MSm.thisRepN,nasa_tlx_loop_MSm.thisTrialN,nasa_tlx_loop_MSm.thisN,nasa_tlx_loop_MSm.thisIndex,nasa_tlx_loop_MSm.ran,MSm.thisRepN,MSm.thisTrialN,MSm.thisN,MSm.thisIndex,MSm.ran,sequence,target_present,control,resp_S_H_trials.keys,resp_S_H_trials.corr,resp_S_H_trials.rt,space_perehod_SH.keys,space_perehod_SH.rt,sternberg_hard_loop.thisRepN,sternberg_hard_loop.thisTrialN,sternberg_hard_loop.thisN,sternberg_hard_loop.thisIndex,sternberg_hard_loop.ran,nasa_tlx_loop_Sh.thisRepN,nasa_tlx_loop_Sh.thisTrialN,nasa_tlx_loop_Sh.thisN,nasa_tlx_loop_Sh.thisIndex,nasa_tlx_loop_Sh.ran,Sh.thisRepN,Sh.thisTrialN,Sh.thisN,Sh.thisIndex,Sh.ran,X,resp_MR_medium.keys,resp_MR_medium.corr,resp_MR_medium.rt,space_perehod_MRm.keys,space_perehod_MRm.rt,MR_medium_loop.thisRepN,MR_medium_loop.thisTrialN,MR_medium_loop.thisN,MR_medium_loop.thisIndex,MR_medium_loop.ran,nasa_tlx_loop_MRm.thisRepN,nasa_tlx_loop_MRm.thisTrialN,nasa_tlx_loop_MRm.thisN,nasa_tlx_loop_MRm.thisIndex,nasa_tlx_loop_MRm.ran,MRm.thisRepN,MRm.thisTrialN,MRm.thisN,MRm.thisIndex,MRm.ran,resp_MR_hard.keys,resp_MR_hard.corr,resp_MR_hard.rt,space_perehod_MRh.keys,space_perehod_MRh.rt,MR_hard_loop.thisRepN,MR_hard_loop.thisTrialN,MR_hard_loop.thisN,MR_hard_loop.thisIndex,MR_hard_loop.ran,nasa_tlx_loop_MRh.thisRepN,nasa_tlx_loop_MRh.thisTrialN,nasa_tlx_loop_MRh.thisN,nasa_tlx_loop_MRh.thisIndex,nasa_tlx_loop_MRh.ran,MRh.thisRepN,MRh.thisTrialN,MRh.thisN,MRh.thisIndex,MRh.ran
left,1,20.2235,space,2.1152,0,0,0,2,1,images/training/2_a_x_135_y_45_z_315.png,images/training/2_b_x_135_y_135_z_315.png,left,029SSDL,2022-07-16_07h45.19.402,entire_exp,2022.1.1,Win32,142.9592566,,,,,,,,,,,,,,,,,,,,,,,,,,,,,,,,,,,,,,,,,,,,,,,,,,,,,,,,,,,,,,,,,,,,,,,,,,,,,,,,,,,,,,,,,,,,,,,,,,,,,,,,,,,,,,,,,,,,,,,,,,,,,,,,,,,,,,,,,,,,,,,,,,,,,,,,,,,,,,,,,,,,,,,,,,,,,,,,,,,,,,,,,,
left,1,37.8577,space,0.7464,0,1,1,0,1,images/training/10_b_x_180_y_0_z_0.png,images/training/10_a_x_180_y_0_z_45.png,left,029SSDL,2022-07-16_07h45.19.402,entire_exp,2022.1.1,Win32,142.9592566,,,,,,,,,,,,,,,,,,,,,,,,,,,,,,,,,,,,,,,,,,,,,,,,,,,,,,,,,,,,,,,,,,,,,,,,,,,,,,,,,,,,,,,,,,,,,,,,,,,,,,,,,,,,,,,,,,,,,,,,,,,,,,,,,,,,,,,,,,,,,,,,,,,,,,,,,,,,,,,,,,,,,,,,,,,,,,,,,,,,,,,,,,
right,1,22.346,space,0.3832,0,2,2,1,1,images/training/1_a_x_180_y_0_z_0.png,images/training/1_a_x_180_y_0_z_135.png,right,029SSDL,2022-07-16_07h45.19.402,entire_exp,2022.1.1,Win32,142.9592566,,,,,,,,,,,,,,,,,,,,,,,,,,,,,,,,,,,,,,,,,,,,,,,,,,,,,,,,,,,,,,,,,,,,,,,,,,,,,,,,,,,,,,,,,,,,,,,,,,,,,,,,,,,,,,,,,,,,,,,,,,,,,,,,,,,,,,,,,,,,,,,,,,,,,,,,,,,,,,,,,,,,,,,,,,,,,,,,,,,,,,,,,,
,,,,,,,,,,,,,029SSDL,2022-07-16_07h45.19.402,entire_exp,2022.1.1,Win32,142.9592566,left,1,2.2726,space,1.2025,0,0,0,0,1,,,,,,,,,,,,,,,,,,,,,,,,,,,,,,,,,,,,,,,,,,,,,,,,,,,,,,,,,,,,,,,,,,,,,,,,,,,,,,,,,,,,,,,,,,,,,,,,,,,,,,,,,,,,,,,,,,,,,,,,,,,,,,,,,,,,,,,,,,,,,,,,,,,,,,,,,,,,,,,,,,,,,,,,,,,,,,,,
,,,,,,,,,,,,,029SSDL,2022-07-16_07h45.19.402,entire_exp,2022.1.1,Win32,142.9592566,right,1,1.4122,space,0.873,1,0,1,0,1,,,,,,,,,,,,,,,,,,,,,,,,,,,,,,,,,,,,,,,,,,,,,,,,,,,,,,,,,,,,,,,,,,,,,,,,,,,,,,,,,,,,,,,,,,,,,,,,,,,,,,,,,,,,,,,,,,,,,,,,,,,,,,,,,,,,,,,,,,,,,,,,,,,,,,,,,,,,,,,,,,,,,,,,,,,,,,,,
,,,,,,,,,,,,,029SSDL,2022-07-16_07h45.19.402,entire_exp,2022.1.1,Win32,142.9592566,left,1,1.16,space,0.937,2,0,2,0,1,,,,,,,,,,,,,,,,,,,,,,,,,,,,,,,,,,,,,,,,,,,,,,,,,,,,,,,,,,,,,,,,,,,,,,,,,,,,,,,,,,,,,,,,,,,,,,,,,,,,,,,,,,,,,,,,,,,,,,,,,,,,,,,,,,,,,,,,,,,,,,,,,,,,,,,,,,,,,,,,,,,,,,,,,,,,,,,,
,,,,,,,,,,,,,029SSDL,2022-07-16_07h45.19.402,entire_exp,2022.1.1,Win32,142.9592566,,,,,,,,,,,здание,фраза,оплата,0,0,0,0,1,здание,фраза,оплата,,,,,,,,,,,,,,,,,,,,,,,,,,,,,,,,,,,,,,,,,,,,,,,,,,,,,,,,,,,,,,,,,,,,,,,,,,,,,,,,,,,,,,,,,,,,,,,,,,,,,,,,,,,,,,,,,,,,,,,,,,,,,,,,,,,,,,,,,,,,,,,,,,,,,,,,,,,,,,,,,,,,,
,,,,,,,,,,,,,029SSDL,2022-07-16_07h45.19.402,entire_exp,2022.1.1,Win32,142.9592566,,,,,,,,,,,письмо,среда,хоккей,0,1,1,2,1,письмо,среда,хоккей,,,,,,,,,,,,,,,,,,,,,,,,,,,,,,,,,,,,,,,,,,,,,,,,,,,,,,,,,,,,,,,,,,,,,,,,,,,,,,,,,,,,,,,,,,,,,,,,,,,,,,,,,,,,,,,,,,,,,,,,,,,,,,,,,,,,,,,,,,,,,,,,,,,,,,,,,,,,,,,,,,,,,
,,,,,,,,,,,,,029SSDL,2022-07-16_07h45.19.402,entire_exp,2022.1.1,Win32,142.9592566,,,,,,,,,,,магазин,сюжет,бумага,0,2,2,1,1,магазин,сюжет,бумага,,,,,,,,,,,,,,,,,,,,,,,,,,,,,,,,,,,,,,,,,,,,,,,,,,,,,,,,,,,,,,,,,,,,,,,,,,,,,,,,,,,,,,,,,,,,,,,,,,,,,,,,,,,,,,,,,,,,,,,,,,,,,,,,,,,,,,,,,,,,,,,,,,,,,,,,,,,,,,,,,,,,,
,,,,,,,,,,,,,029SSDL,2022-07-16_07h45.19.402,entire_exp,2022.1.1,Win32,142.9592566,,,,,,,,,,,,,,,,,,,,,,12.97777755,0,0,0,0,1,Умственная нагрузка,"Как много умственных усилий, как вам показалось на первый взгляд, требовалось для выполнения задания? (при размышлении, принятия решений, запоминании, поиске и др.) Задание было легким или трудным, простым или сложным, изнурительным или щадящим?",Низкая,Высокая,,,,,,,,,,,,,,,,,,,,,,,,,,,,,,,,,,,,,,,,,,,,,,,,,,,,,,,,,,,,,,,,,,,,,,,,,,,,,,,,,,,,,,,,,,,,,,,,,,,,,,,,,,,,,,,,,,,,,,,,,,,,,,,,,,,,,,,,,,,,,,,,,,,,,,,,,,,
,,,,,,,,,,,,,029SSDL,2022-07-16_07h45.19.402,entire_exp,2022.1.1,Win32,142.9592566,,,,,,,,,,,,,,,,,,,,,,7.940740515,0,1,1,1,1,Физическая нагрузка,"Как много физических усилий, как вам показалось на первый взгляд, пришлось приложить для выполнения задания (например, бег, прыжки, тяга, толкание, вращения и др.)? Задание было легким или трудным, неспешным или оживлённым, спокойным или напряженным, расслабленным или утомительным?",Низкая,Высокая,,,,,,,,,,,,,,,,,,,,,,,,,,,,,,,,,,,,,,,,,,,,,,,,,,,,,,,,,,,,,,,,,,,,,,,,,,,,,,,,,,,,,,,,,,,,,,,,,,,,,,,,,,,,,,,,,,,,,,,,,,,,,,,,,,,,,,,,,,,,,,,,,,,,,,,,,,,
,,,,,,,,,,,,,029SSDL,2022-07-16_07h45.19.402,entire_exp,2022.1.1,Win32,142.9592566,,,,,,,,,,,,,,,,,,,,,,4,0,2,2,2,1,Давление времени,"Насколько сильно ощущалась нехватка времени при выполнении задания? Был ли ход выполнения спокойным и неторопливым или, наоборот, быстрым и бурным?",Слабое,Сильное,,,,,,,,,,,,,,,,,,,,,,,,,,,,,,,,,,,,,,,,,,,,,,,,,,,,,,,,,,,,,,,,,,,,,,,,,,,,,,,,,,,,,,,,,,,,,,,,,,,,,,,,,,,,,,,,,,,,,,,,,,,,,,,,,,,,,,,,,,,,,,,,,,,,,,,,,,,
,,,,,,,,,,,,,029SSDL,2022-07-16_07h45.19.402,entire_exp,2022.1.1,Win32,142.9592566,,,,,,,,,,,,,,,,,,,,,,18,0,3,3,3,1,Успешность выполнения,"Как вы думаете, насколько успешно было выполнено задание? Насколько вы довольны ходом выполнения задания?",Совсем не выполнено,Полностью выполнено,,,,,,,,,,,,,,,,,,,,,,,,,,,,,,,,,,,,,,,,,,,,,,,,,,,,,,,,,,,,,,,,,,,,,,,,,,,,,,,,,,,,,,,,,,,,,,,,,,,,,,,,,,,,,,,,,,,,,,,,,,,,,,,,,,,,,,,,,,,,,,,,,,,,,,,,,,,
,,,,,,,,,,,,,029SSDL,2022-07-16_07h45.19.402,entire_exp,2022.1.1,Win32,142.9592566,,,,,,,,,,,,,,,,,,,,,,7.022222448,0,4,4,4,1,Усилия,Сколько усилий на самом деле вы приложили для выполнения задания (умственных и/или физических) для достигнутого вами результата?,Мало,Много,,,,,,,,,,,,,,,,,,,,,,,,,,,,,,,,,,,,,,,,,,,,,,,,,,,,,,,,,,,,,,,,,,,,,,,,,,,,,,,,,,,,,,,,,,,,,,,,,,,,,,,,,,,,,,,,,,,,,,,,,,,,,,,,,,,,,,,,,,,,,,,,,,,,,,,,,,,
,,,,,,,,,,,,,029SSDL,2022-07-16_07h45.19.402,entire_exp,2022.1.1,Win32,142.9592566,,,,,,,,,,,,,,,,,,,,,,7.066667345,0,5,5,5,1,Уровень фрустрации,"Насколько неуверенно в себе, разочарованно, раздраженно или напряженно вы чувствовали себя в ходе выполнения задания? Или же наоборот, вы были уверенны в себе, а выполнение задания было приятным и расслабленным?",Низкий,Высокий,,,,,,,,,,,,,,,,,,,,,,,,,,,,,,,,,,,,,,,,,,,,,,,,,,,,,,,,,,,,,,,,,,,,,,,,,,,,,,,,,,,,,,,,,,,,,,,,,,,,,,,,,,,,,,,,,,,,,,,,,,,,,,,,,,,,,,,,,,,,,,,,,,,,,,,,,,,
,,,,,,,,,,,,,029SSDL,2022-07-16_07h45.19.402,entire_exp,2022.1.1,Win32,142.9592566,,,,,,,,,,,,,,,,,,,,,,,,,,,,,,,,"[0.4,0]",left,images/base/16_b.png,images/combined/16_a_x_0_y_0_z_45.png,45,mental_rotation,1,T,left,1,11.4708,space,1.0105,0,0,0,0,1,,,,,,,,,,,,,,,,,,,,,,,,,,,,,,,,,,,,,,,,,,,,,,,,,,,,,,,,,,,,,,,,,,,,,,,,,,,,,,,,,,,,,,,,,,,,,,,,,,,,,,,,,,,,,,,,,,,,,,,,,,,,,,,,,,,,,,,,,
,,,,,,,,,,,,,029SSDL,2022-07-16_07h45.19.402,entire_exp,2022.1.1,Win32,142.9592566,,,,,,,,,,,,,,,,,,,,,,,,,,,,,,,,"[0.4,0]",left,images/base/15_a.png,images/combined/15_b_x_0_y_0_z_45.png,45,mental_rotation,1,T,right,0,14.566,space,1.1749,1,0,1,0,1,,,,,,,,,,,,,,,,,,,,,,,,,,,,,,,,,,,,,,,,,,,,,,,,,,,,,,,,,,,,,,,,,,,,,,,,,,,,,,,,,,,,,,,,,,,,,,,,,,,,,,,,,,,,,,,,,,,,,,,,,,,,,,,,,,,,,,,,,
,,,,,,,,,,,,,029SSDL,2022-07-16_07h45.19.402,entire_exp,2022.1.1,Win32,142.9592566,,,,,,,,,,,,,,,,,,,,,,,,,,,,,,,,"[0.4,0]",right,images/base/14_a.png,images/combined/14_a_x_0_y_0_z_45.png,45,mental_rotation,1,T,right,1,5.8667,space,0.8685,2,0,2,0,1,,,,,,,,,,,,,,,,,,,,,,,,,,,,,,,,,,,,,,,,,,,,,,,,,,,,,,,,,,,,,,,,,,,,,,,,,,,,,,,,,,,,,,,,,,,,,,,,,,,,,,,,,,,,,,,,,,,,,,,,,,,,,,,,,,,,,,,,,
,,,,,,,,,,,,,029SSDL,2022-07-16_07h45.19.402,entire_exp,2022.1.1,Win32,142.9592566,,,,,,,,,,,,,,,,,,,,,,,,,,,,,,,,"[-0.4,0]",right,images/base/12_a.png,images/combined/12_a_x_0_y_0_z_45.png,45,mental_rotation,1,T,right,1,5.241,space,0.378,3,0,3,0,1,,,,,,,,,,,,,,,,,,,,,,,,,,,,,,,,,,,,,,,,,,,,,,,,,,,,,,,,,,,,,,,,,,,,,,,,,,,,,,,,,,,,,,,,,,,,,,,,,,,,,,,,,,,,,,,,,,,,,,,,,,,,,,,,,,,,,,,,,
,,,,,,,,,,,,,029SSDL,2022-07-16_07h45.19.402,entire_exp,2022.1.1,Win32,142.9592566,,,,,,,,,,,,,,,,,,,,,,,,,,,,,,,,"[0.4,0]",left,images/base/1_b.png,images/combined/1_a_x_0_y_0_z_315.png,315,mental_rotation,1,T,left,1,6.9644,space,0.6554,4,0,4,0,1,,,,,,,,,,,,,,,,,,,,,,,,,,,,,,,,,,,,,,,,,,,,,,,,,,,,,,,,,,,,,,,,,,,,,,,,,,,,,,,,,,,,,,,,,,,,,,,,,,,,,,,,,,,,,,,,,,,,,,,,,,,,,,,,,,,,,,,,,
,,,,,,,,,,,,,029SSDL,2022-07-16_07h45.19.402,entire_exp,2022.1.1,Win32,142.9592566,,,,,,,,,,,,,,,,,,,,,,,,,,,,,,,,"[0.4,0]",left,images/base/13_b.png,images/combined/13_a_x_0_y_0_z_315.png,315,mental_rotation,1,T,left,1,5.7984,space,0.3999,5,0,5,0,1,,,,,,,,,,,,,,,,,,,,,,,,,,,,,,,,,,,,,,,,,,,,,,,,,,,,,,,,,,,,,,,,,,,,,,,,,,,,,,,,,,,,,,,,,,,,,,,,,,,,,,,,,,,,,,,,,,,,,,,,,,,,,,,,,,,,,,,,,
,,,,,,,,,,,,,029SSDL,2022-07-16_07h45.19.402,entire_exp,2022.1.1,Win32,142.9592566,,,,,,,,,,,,,,,,,,,,,,,,,,,,,,,,"[0.4,0]",right,images/base/7_a.png,images/combined/7_a_x_0_y_0_z_315.png,315,mental_rotation,1,T,right,1,5.0245,space,0.3366,6,0,6,0,1,,,,,,,,,,,,,,,,,,,,,,,,,,,,,,,,,,,,,,,,,,,,,,,,,,,,,,,,,,,,,,,,,,,,,,,,,,,,,,,,,,,,,,,,,,,,,,,,,,,,,,,,,,,,,,,,,,,,,,,,,,,,,,,,,,,,,,,,,
,,,,,,,,,,,,,029SSDL,2022-07-16_07h45.19.402,entire_exp,2022.1.1,Win32,142.9592566,,,,,,,,,,,,,,,,,,,,,,,,,,,,,,,,"[0.4,0]",left,images/base/2_b.png,images/combined/2_a_x_0_y_0_z_315.png,315,mental_rotation,1,T,left,1,4.52,space,0.464,7,0,7,0,1,,,,,,,,,,,,,,,,,,,,,,,,,,,,,,,,,,,,,,,,,,,,,,,,,,,,,,,,,,,,,,,,,,,,,,,,,,,,,,,,,,,,,,,,,,,,,,,,,,,,,,,,,,,,,,,,,,,,,,,,,,,,,,,,,,,,,,,,,
,,,,,,,,,,,,,029SSDL,2022-07-16_07h45.19.402,entire_exp,2022.1.1,Win32,142.9592566,,,,,,,,,,,,,,,,,,,,,,,,,,,,,,,,"[-0.4,0]",right,images/base/3_a.png,images/combined/3_a_x_0_y_0_z_315.png,315,mental_rotation,1,T,right,1,4.9214,space,0.3539,8,0,8,0,1,,,,,,,,,,,,,,,,,,,,,,,,,,,,,,,,,,,,,,,,,,,,,,,,,,,,,,,,,,,,,,,,,,,,,,,,,,,,,,,,,,,,,,,,,,,,,,,,,,,,,,,,,,,,,,,,,,,,,,,,,,,,,,,,,,,,,,,,,
,,,,,,,,,,,,,029SSDL,2022-07-16_07h45.19.402,entire_exp,2022.1.1,Win32,142.9592566,,,,,,,,,,,,,,,,,,,,,,,,,,,,,,,,"[-0.4,0]",left,images/base/4_a.png,images/combined/4_b_x_0_y_0_z_315.png,315,mental_rotation,1,T,left,1,4.7979,space,0.9922,9,0,9,0,1,,,,,,,,,,,,,,,,,,,,,,,,,,,,,,,,,,,,,,,,,,,,,,,,,,,,,,,,,,,,,,,,,,,,,,,,,,,,,,,,,,,,,,,,,,,,,,,,,,,,,,,,,,,,,,,,,,,,,,,,,,,,,,,,,,,,,,,,,
,,,,,,,,,,,,,029SSDL,2022-07-16_07h45.19.402,entire_exp,2022.1.1,Win32,142.9592566,,,,,,,,,,,,,,,,,,,,,,,,,,,,,,,,"[-0.4,0]",right,images/base/5_b.png,images/combined/5_b_x_0_y_0_z_315.png,315,mental_rotation,1,T,right,1,2.6262,space,0.339,10,0,10,0,1,,,,,,,,,,,,,,,,,,,,,,,,,,,,,,,,,,,,,,,,,,,,,,,,,,,,,,,,,,,,,,,,,,,,,,,,,,,,,,,,,,,,,,,,,,,,,,,,,,,,,,,,,,,,,,,,,,,,,,,,,,,,,,,,,,,,,,,,,
,,,,,,,,,,,,,029SSDL,2022-07-16_07h45.19.402,entire_exp,2022.1.1,Win32,142.9592566,,,,,,,,,,,,,,,,,,,,,,,,,,,,,,,,"[0.4,0]",right,images/base/11_b.png,images/combined/11_b_x_0_y_0_z_315.png,315,mental_rotation,1,T,right,1,2.8204,space,0.5414,11,0,11,0,1,,,,,,,,,,,,,,,,,,,,,,,,,,,,,,,,,,,,,,,,,,,,,,,,,,,,,,,,,,,,,,,,,,,,,,,,,,,,,,,,,,,,,,,,,,,,,,,,,,,,,,,,,,,,,,,,,,,,,,,,,,,,,,,,,,,,,,,,,
,,,,,,,,,,,,,029SSDL,2022-07-16_07h45.19.402,entire_exp,2022.1.1,Win32,142.9592566,,,,,,,,,,,,,,,,,,,,,,,,,,,,,,,,"[-0.4,0]",right,images/base/9_b.png,images/combined/9_b_x_0_y_0_z_45.png,45,mental_rotation,1,T,right,1,4.2408,space,0.2577,12,0,12,0,1,,,,,,,,,,,,,,,,,,,,,,,,,,,,,,,,,,,,,,,,,,,,,,,,,,,,,,,,,,,,,,,,,,,,,,,,,,,,,,,,,,,,,,,,,,,,,,,,,,,,,,,,,,,,,,,,,,,,,,,,,,,,,,,,,,,,,,,,,
,,,,,,,,,,,,,029SSDL,2022-07-16_07h45.19.402,entire_exp,2022.1.1,Win32,142.9592566,,,,,,,,,,,,,,,,,,,,,,,,,,,,,,,,"[0.4,0]",left,images/base/6_a.png,images/combined/6_b_x_0_y_0_z_315.png,315,mental_rotation,1,T,left,1,2.2413,space,0.202,13,0,13,0,1,,,,,,,,,,,,,,,,,,,,,,,,,,,,,,,,,,,,,,,,,,,,,,,,,,,,,,,,,,,,,,,,,,,,,,,,,,,,,,,,,,,,,,,,,,,,,,,,,,,,,,,,,,,,,,,,,,,,,,,,,,,,,,,,,,,,,,,,,
,,,,,,,,,,,,,029SSDL,2022-07-16_07h45.19.402,entire_exp,2022.1.1,Win32,142.9592566,,,,,,,,,,,,,,,,,,,,,,,,,,,,,,,,"[-0.4,0]",left,images/base/8_b.png,images/combined/8_a_x_0_y_0_z_45.png,45,mental_rotation,1,T,left,1,4.4581,space,0.7339,14,0,14,0,1,,,,,,,,,,,,,,,,,,,,,,,,,,,,,,,,,,,,,,,,,,,,,,,,,,,,,,,,,,,,,,,,,,,,,,,,,,,,,,,,,,,,,,,,,,,,,,,,,,,,,,,,,,,,,,,,,,,,,,,,,,,,,,,,,,,,,,,,,
,,,,,,,,,,,,,029SSDL,2022-07-16_07h45.19.402,entire_exp,2022.1.1,Win32,142.9592566,,,,,,,,,,,,,,,,,,,,,,,,,,,,,,,,"[0.4,0]",left,images/base/10_a.png,images/combined/10_b_x_0_y_0_z_45.png,45,mental_rotation,1,T,right,0,12.8537,space,0.2733,15,0,15,0,1,,,,,,,,,,,,,,,,,,,,,,,,,,,,,,,,,,,,,,,,,,,,,,,,,,,,,,,,,,,,,,,,,,,,,,,,,,,,,,,,,,,,,,,,,,,,,,,,,,,,,,,,,,,,,,,,,,,,,,,,,,,,,,,,,,,,,,,,,
,,,,,,,,,,,,,029SSDL,2022-07-16_07h45.19.402,entire_exp,2022.1.1,Win32,142.9592566,,,,,,,,,,,,,,,,,,,,,,15.09629765,,,,,,Умственная нагрузка,"Как много умственных усилий, как вам показалось на первый взгляд, требовалось для выполнения задания?",Низкая,Высокая,,,,,,mental_rotation,1,Q,,,,,,,,,,,0,0,0,0,1,,,,,,,,,,,,,,,,,,,,,,,,,,,,,,,,,,,,,,,,,,,,,,,,,,,,,,,,,,,,,,,,,,,,,,,,,,,,,,,,,,,,,,,,,,,,,,,,,,,,,,,,,,,,,,,,,,,,,,,,,,,,,,,,,,,,
,,,,,,,,,,,,,029SSDL,2022-07-16_07h45.19.402,entire_exp,2022.1.1,Win32,142.9592566,,,,,,,,,,,,,,,,,,,,,,5.022222448,,,,,,Физическая нагрузка,"Как много физических усилий, как вам показалось на первый взгляд, пришлось приложить для выполнения задания?",Низкая,Высокая,,,,,,mental_rotation,1,Q,,,,,,,,,,,0,1,1,1,1,,,,,,,,,,,,,,,,,,,,,,,,,,,,,,,,,,,,,,,,,,,,,,,,,,,,,,,,,,,,,,,,,,,,,,,,,,,,,,,,,,,,,,,,,,,,,,,,,,,,,,,,,,,,,,,,,,,,,,,,,,,,,,,,,,,,
,,,,,,,,,,,,,029SSDL,2022-07-16_07h45.19.402,entire_exp,2022.1.1,Win32,142.9592566,,,,,,,,,,,,,,,,,,,,,,7.851851852,,,,,,Давление времени,"Нужно было торопиться, чтобы выполнить задание, или можно было работать в своём темпе?",Слабое,Сильное,,,,,,mental_rotation,1,Q,,,,,,,,,,,0,2,2,2,1,,,,,,,,,,,,,,,,,,,,,,,,,,,,,,,,,,,,,,,,,,,,,,,,,,,,,,,,,,,,,,,,,,,,,,,,,,,,,,,,,,,,,,,,,,,,,,,,,,,,,,,,,,,,,,,,,,,,,,,,,,,,,,,,,,,,
,,,,,,,,,,,,,029SSDL,2022-07-16_07h45.19.402,entire_exp,2022.1.1,Win32,142.9592566,,,,,,,,,,,,,,,,,,,,,,13.91111134,,,,,,Успешность выполнения,"Как вы думаете, насколько успешно было выполнено задание?",Совсем не выполнено,Полностью выполнено,,,,,,mental_rotation,1,Q,,,,,,,,,,,0,3,3,3,1,,,,,,,,,,,,,,,,,,,,,,,,,,,,,,,,,,,,,,,,,,,,,,,,,,,,,,,,,,,,,,,,,,,,,,,,,,,,,,,,,,,,,,,,,,,,,,,,,,,,,,,,,,,,,,,,,,,,,,,,,,,,,,,,,,,,
,,,,,,,,,,,,,029SSDL,2022-07-16_07h45.19.402,entire_exp,2022.1.1,Win32,142.9592566,,,,,,,,,,,,,,,,,,,,,,12.02963031,,,,,,Усилия,Сколько усилий на самом деле вы приложили для выполнения задания?,Мало,Много,,,,,,mental_rotation,1,Q,,,,,,,,,,,0,4,4,4,1,,,,,,,,,,,,,,,,,,,,,,,,,,,,,,,,,,,,,,,,,,,,,,,,,,,,,,,,,,,,,,,,,,,,,,,,,,,,,,,,,,,,,,,,,,,,,,,,,,,,,,,,,,,,,,,,,,,,,,,,,,,,,,,,,,,,
,,,,,,,,,,,,,029SSDL,2022-07-16_07h45.19.402,entire_exp,2022.1.1,Win32,142.9592566,,,,,,,,,,,,,,,,,,,,,,,,,,,,Уровень фрустрации,Насколько напряженным и раздражающим было задание?,Низкий,Высокий,,,,,,mental_rotation,1,Q,,,,,,,,,,,0,5,5,5,1,,,,,,,,,,,,,,,,,,,,,,,,,,,,,,,,,,,,,,,,,,,,,,,,,,,,,,,,,,,,,,,,,,,,,,,,,,,,,,,,,,,,,,,,,,,,,,,,,,,,,,,,,,,,,,,,,,,,,,,,,,,,,,,,,,,,
,,,,,,,,,,,,,029SSDL,2022-07-16_07h45.19.402,entire_exp,2022.1.1,Win32,142.9592566,,,,,,,,,,,,,,,,,,,,,,,,,,,,,,,,,,,,,,,,,,,,,,,,,,,,,,,0,0,0,0,1,,,,,,,,,,,,,,,,,,,,,,,,,,,,,,,,,,,,,,,,,,,,,,,,,,,,,,,,,,,,,,,,,,,,,,,,,,,,,,,,,,,,,,,,,,,,,,,,,,,,,,,,,,,,,,,,,,,,,,,,,,,,,,,
,,,,,,,,,,,,,029SSDL,2022-07-16_07h45.19.402,entire_exp,2022.1.1,Win32,142.9592566,,,,,,,,,,,,,,,,,,,,,,,,,,,,,,,,,,,,,,,,,,,,,,,,,,,,,,,,,,,,0,0,0,0,1,1,0,0,0,0,0,0,0,0,,,,,,,,,,,,,,,,,,,,,,,,,,,,,,,,,,,,,,,,,,,,,,,,,,,,,,,,,,,,,,,,,,,,,,,,,,,,,,,,,,,,,,,,,,,,,,,,,,,,,,,,,,,,,,,,,
,,,,,,,,,,,,,029SSDL,2022-07-16_07h45.19.402,entire_exp,2022.1.1,Win32,142.9592566,,,,,,,,,,,,,,,,,,,,,,,,,,,,,,,,,,,,,mental_span,3,T,,,,,,,,,,,,,,,,,,,,,,,,,,,,,,,,,,,костыль,киоск,открытка,вилка,плеер,ракетка,кувшин,костыль,киоск,,ракетка,,,кувшин,0,0,0,0,1,,,,,,,,,,,,,,,,,,,,,,,,,,,,,,,,,,,,,,,,,,,,,,,,,,,,,,,,,,,,,,,,,,,,,,,,,,,,,,,,,,,,,,,,,,,,,,
,,,,,,,,,,,,,029SSDL,2022-07-16_07h45.19.402,entire_exp,2022.1.1,Win32,142.9592566,,,,,,,,,,,,,,,,,,,,,,,,,,,,,,,,,,,,,mental_span,3,T,,,,,,,,,,,,,,,,,,,,,,,,,,,,,,,,,,,медведь,дятел,ракетка,кукла,ножницы,корабль,швабра,медведь,охота,ракетка,кукла,,корабль,,1,0,1,0,1,,,,,,,,,,,,,,,,,,,,,,,,,,,,,,,,,,,,,,,,,,,,,,,,,,,,,,,,,,,,,,,,,,,,,,,,,,,,,,,,,,,,,,,,,,,,,,
,,,,,,,,,,,,,029SSDL,2022-07-16_07h45.19.402,entire_exp,2022.1.1,Win32,142.9592566,,,,,,,,,,,,,,,,,,,,,,,,,,,,,,,,,,,,,mental_span,3,T,,,,,,,,,,,,,,,,,,,,,,,,,,,,,,,,,,,салфетка,брюки,стакан,дорога,куртка,ружье,кенгуру,салфетка,брюки,стакан,дорога,куртка,ружьё,кенгуру,2,0,2,0,1,,,,,,,,,,,,,,,,,,,,,,,,,,,,,,,,,,,,,,,,,,,,,,,,,,,,,,,,,,,,,,,,,,,,,,,,,,,,,,,,,,,,,,,,,,,,,,
,,,,,,,,,,,,,029SSDL,2022-07-16_07h45.19.402,entire_exp,2022.1.1,Win32,142.9592566,,,,,,,,,,,,,,,,,,,,,,,,,,,,,,,,,,,,,mental_span,3,T,,,,,,,,,,,,,,,,,,,,,,,,,,,,,,,,,,,бабочка,книга,коляска,дорога,кастрюля,мольберт,ландыш,книга,бабочка,коляска,дорога,кастрюля,мольберт,ландыши,3,0,3,0,1,,,,,,,,,,,,,,,,,,,,,,,,,,,,,,,,,,,,,,,,,,,,,,,,,,,,,,,,,,,,,,,,,,,,,,,,,,,,,,,,,,,,,,,,,,,,,,
,,,,,,,,,,,,,029SSDL,2022-07-16_07h45.19.402,entire_exp,2022.1.1,Win32,142.9592566,,,,,,,,,,,,,,,,,,,,,,,,,,,,,,,,,,,,,mental_span,3,T,,,,,,,,,,,,,,,,,,,,,,,,,,,,,,,,,,,кровать,таблетка,камера,рынок,пират,орден,носилки,кровать,таблетки,,,,орден,носилки,4,0,4,0,1,,,,,,,,,,,,,,,,,,,,,,,,,,,,,,,,,,,,,,,,,,,,,,,,,,,,,,,,,,,,,,,,,,,,,,,,,,,,,,,,,,,,,,,,,,,,,,
,,,,,,,,,,,,,029SSDL,2022-07-16_07h45.19.402,entire_exp,2022.1.1,Win32,142.9592566,,,,,,,,,,,,,,,,,,,,,,,,,,,,,,,,,,,,,mental_span,3,T,,,,,,,,,,,,,,,,,,,,,,,,,,,,,,,,,,,колено,хомяк,ванная,сундук,салфетки,маска,свисток,колено,хомяк,ванна,сундук,салфетки,маска,свисток,5,0,5,0,1,,,,,,,,,,,,,,,,,,,,,,,,,,,,,,,,,,,,,,,,,,,,,,,,,,,,,,,,,,,,,,,,,,,,,,,,,,,,,,,,,,,,,,,,,,,,,,
,,,,,,,,,,,,,029SSDL,2022-07-16_07h45.19.402,entire_exp,2022.1.1,Win32,142.9592566,,,,,,,,,,,,,,,,,,,,,,,,,,,,,,,,,,,,,mental_span,3,T,,,,,,,,,,,,,,,,,,,,,,,,,,,,,,,,,,,колесо,солонка,голубь,сердце,крышка,трусы,капуста,,,голубь,сердце,крышка,трусы,капуста,6,0,6,0,1,,,,,,,,,,,,,,,,,,,,,,,,,,,,,,,,,,,,,,,,,,,,,,,,,,,,,,,,,,,,,,,,,,,,,,,,,,,,,,,,,,,,,,,,,,,,,,
,,,,,,,,,,,,,029SSDL,2022-07-16_07h45.19.402,entire_exp,2022.1.1,Win32,142.9592566,,,,,,,,,,,,,,,,,,,,,,,,,,,,,,,,,,,,,mental_span,3,T,,,,,,,,,,,,,,,,,,,,,,,,,,,,,,,,,,,кувшин,венок,сундук,клубок,рукав,капля,спортсмен,кувшин,венок,сунук,клубок,рукав,капля,,7,0,7,0,1,,,,,,,,,,,,,,,,,,,,,,,,,,,,,,,,,,,,,,,,,,,,,,,,,,,,,,,,,,,,,,,,,,,,,,,,,,,,,,,,,,,,,,,,,,,,,,
,,,,,,,,,,,,,029SSDL,2022-07-16_07h45.19.402,entire_exp,2022.1.1,Win32,142.9592566,,,,,,,,,,,,,,,,,,,,,,,,,,,,,,,,,,,,,mental_span,3,T,,,,,,,,,,,,,,,,,,,,,,,,,,,,,,,,,,,охотник,крендель,рыцарь,молоток,шуруп,скалка,картина,охотник,крендель,рыцарь,молоток,шуруп,скалка,картина,8,0,8,0,1,,,,,,,,,,,,,,,,,,,,,,,,,,,,,,,,,,,,,,,,,,,,,,,,,,,,,,,,,,,,,,,,,,,,,,,,,,,,,,,,,,,,,,,,,,,,,,
,,,,,,,,,,,,,029SSDL,2022-07-16_07h45.19.402,entire_exp,2022.1.1,Win32,142.9592566,,,,,,,,,,,,,,,,,,,,,,,,,,,,,,,,,,,,,mental_span,3,T,,,,,,,,,,,,,,,,,,,,,,,,,,,,,,,,,,,букет,свеча,дуршлаг,кухня,коньки,рукав,дятел,букет,свеча,дуршлаг,кухня,коньки,рукав,дятел,9,0,9,0,1,,,,,,,,,,,,,,,,,,,,,,,,,,,,,,,,,,,,,,,,,,,,,,,,,,,,,,,,,,,,,,,,,,,,,,,,,,,,,,,,,,,,,,,,,,,,,,
,,,,,,,,,,,,,029SSDL,2022-07-16_07h45.19.402,entire_exp,2022.1.1,Win32,142.9592566,,,,,,,,,,,,,,,,,,,,,,,,,,,,,,,,,,,,,mental_span,3,T,,,,,,,,,,,,,,,,,,,,,,,,,,,,,,,,,,,воротник,малина,пирожок,робот,спортсмен,продавец,самовар,воротник,малина,пирожок,робот,спортсмен,продавец,самовар,10,0,10,0,1,,,,,,,,,,,,,,,,,,,,,,,,,,,,,,,,,,,,,,,,,,,,,,,,,,,,,,,,,,,,,,,,,,,,,,,,,,,,,,,,,,,,,,,,,,,,,,
,,,,,,,,,,,,,029SSDL,2022-07-16_07h45.19.402,entire_exp,2022.1.1,Win32,142.9592566,,,,,,,,,,,,,,,,,,,,,,,,,,,,,,,,,,,,,mental_span,3,T,,,,,,,,,,,,,,,,,,,,,,,,,,,,,,,,,,,карета,вертолет,поднос,повар,браслет,почка,кассета,карета,вертолет,повар,поднос,браслет,почка,кассета,11,0,11,0,1,,,,,,,,,,,,,,,,,,,,,,,,,,,,,,,,,,,,,,,,,,,,,,,,,,,,,,,,,,,,,,,,,,,,,,,,,,,,,,,,,,,,,,,,,,,,,,
,,,,,,,,,,,,,029SSDL,2022-07-16_07h45.19.402,entire_exp,2022.1.1,Win32,142.9592566,,,,,,,,,,,,,,,,,,,,,,,,,,,,,,,,,,,,,mental_span,3,T,,,,,,,,,,,,,,,,,,,,,,,,,,,,,,,,,,,топор,булавка,бабушка,спичка,ложка,микрофон,свитер,топор,булавка,бабушка,спичка,,микрофон,свитер,12,0,12,0,1,,,,,,,,,,,,,,,,,,,,,,,,,,,,,,,,,,,,,,,,,,,,,,,,,,,,,,,,,,,,,,,,,,,,,,,,,,,,,,,,,,,,,,,,,,,,,,
,,,,,,,,,,,,,029SSDL,2022-07-16_07h45.19.402,entire_exp,2022.1.1,Win32,142.9592566,,,,,,,,,,,,,,,,,,,,,,,,,,,,,,,,,,,,,mental_span,3,T,,,,,,,,,,,,,,,,,,,,,,,,,,,,,,,,,,,стрела,сундук,спина,кукла,лампа,топор,табурет,стрела,сундук,спина,кукла,лампа,топор,табурет,13,0,13,0,1,,,,,,,,,,,,,,,,,,,,,,,,,,,,,,,,,,,,,,,,,,,,,,,,,,,,,,,,,,,,,,,,,,,,,,,,,,,,,,,,,,,,,,,,,,,,,,
,,,,,,,,,,,,,029SSDL,2022-07-16_07h45.19.402,entire_exp,2022.1.1,Win32,142.9592566,,,,,,,,,,,,,,,,,,,,,,,,,,,,,,,,,,,,,mental_span,3,T,,,,,,,,,,,,,,,,,,,,,,,,,,,,,,,,,,,свиток,будка,почка,замок,замок,мочалка,портфель,свиток,будка,почка,замок,замок,мочалка,портфель,14,0,14,0,1,,,,,,,,,,,,,,,,,,,,,,,,,,,,,,,,,,,,,,,,,,,,,,,,,,,,,,,,,,,,,,,,,,,,,,,,,,,,,,,,,,,,,,,,,,,,,,
,,,,,,,,,,,,,029SSDL,2022-07-16_07h45.19.402,entire_exp,2022.1.1,Win32,142.9592566,,,,,,,,,,,,,,,,,,,,,,,,,,,,,,,,,,,,,mental_span,3,T,,,,,,,,,,,,,,,,,,,,,,,,,,,,,,,,,,,голубь,палитра,трусы,веревка,кулак,муравей,кровать,голубь,палитра,трусы,веревка,кулак,муравей,кровать,15,0,15,0,1,,,,,,,,,,,,,,,,,,,,,,,,,,,,,,,,,,,,,,,,,,,,,,,,,,,,,,,,,,,,,,,,,,,,,,,,,,,,,,,,,,,,,,,,,,,,,,
,,,,,,,,,,,,,029SSDL,2022-07-16_07h45.19.402,entire_exp,2022.1.1,Win32,142.9592566,,,,,,,,,,,,,,,,,,,,,,15.02222358,,,,,,Умственная нагрузка,"Как много умственных усилий, как вам показалось на первый взгляд, требовалось для выполнения задания?",Низкая,Высокая,,,,,,mental_span,3,Q,,,,,,,,,,,,,,,,,,,,,,,,,,,,,,,,,,,,,,,,,,,,,,,,,,,,,,0,0,0,0,1,,,,,,,,,,,,,,,,,,,,,,,,,,,,,,,,,,,,,,,,,,,,,,,,,,,,,,,,,,,,,,,,,,,,,,,,,,,,,,,,,,,,,,,,,
,,,,,,,,,,,,,029SSDL,2022-07-16_07h45.19.402,entire_exp,2022.1.1,Win32,142.9592566,,,,,,,,,,,,,,,,,,,,,,5.851851852,,,,,,Физическая нагрузка,"Как много физических усилий, как вам показалось на первый взгляд, пришлось приложить для выполнения задания?",Низкая,Высокая,,,,,,mental_span,3,Q,,,,,,,,,,,,,,,,,,,,,,,,,,,,,,,,,,,,,,,,,,,,,,,,,,,,,,0,1,1,1,1,,,,,,,,,,,,,,,,,,,,,,,,,,,,,,,,,,,,,,,,,,,,,,,,,,,,,,,,,,,,,,,,,,,,,,,,,,,,,,,,,,,,,,,,,
,,,,,,,,,,,,,029SSDL,2022-07-16_07h45.19.402,entire_exp,2022.1.1,Win32,142.9592566,,,,,,,,,,,,,,,,,,,,,,3.911111337,,,,,,Давление времени,"Нужно было торопиться, чтобы выполнить задание, или можно было работать в своём темпе?",Слабое,Сильное,,,,,,mental_span,3,Q,,,,,,,,,,,,,,,,,,,,,,,,,,,,,,,,,,,,,,,,,,,,,,,,,,,,,,0,2,2,2,1,,,,,,,,,,,,,,,,,,,,,,,,,,,,,,,,,,,,,,,,,,,,,,,,,,,,,,,,,,,,,,,,,,,,,,,,,,,,,,,,,,,,,,,,,
,,,,,,,,,,,,,029SSDL,2022-07-16_07h45.19.402,entire_exp,2022.1.1,Win32,142.9592566,,,,,,,,,,,,,,,,,,,,,,10.02963031,,,,,,Успешность выполнения,"Как вы думаете, насколько успешно было выполнено задание?",Совсем не выполнено,Полностью выполнено,,,,,,mental_span,3,Q,,,,,,,,,,,,,,,,,,,,,,,,,,,,,,,,,,,,,,,,,,,,,,,,,,,,,,0,3,3,3,1,,,,,,,,,,,,,,,,,,,,,,,,,,,,,,,,,,,,,,,,,,,,,,,,,,,,,,,,,,,,,,,,,,,,,,,,,,,,,,,,,,,,,,,,,
,,,,,,,,,,,,,029SSDL,2022-07-16_07h45.19.402,entire_exp,2022.1.1,Win32,142.9592566,,,,,,,,,,,,,,,,,,,,,,12.8740743,,,,,,Усилия,Сколько усилий на самом деле вы приложили для выполнения задания?,Мало,Много,,,,,,mental_span,3,Q,,,,,,,,,,,,,,,,,,,,,,,,,,,,,,,,,,,,,,,,,,,,,,,,,,,,,,0,4,4,4,1,,,,,,,,,,,,,,,,,,,,,,,,,,,,,,,,,,,,,,,,,,,,,,,,,,,,,,,,,,,,,,,,,,,,,,,,,,,,,,,,,,,,,,,,,
,,,,,,,,,,,,,029SSDL,2022-07-16_07h45.19.402,entire_exp,2022.1.1,Win32,142.9592566,,,,,,,,,,,,,,,,,,,,,,3.925925926,,,,,,Уровень фрустрации,Насколько напряженным и раздражающим было задание?,Низкий,Высокий,,,,,,mental_span,3,Q,,,,,,,,,,,,,,,,,,,,,,,,,,,,,,,,,,,,,,,,,,,,,,,,,,,,,,0,5,5,5,1,,,,,,,,,,,,,,,,,,,,,,,,,,,,,,,,,,,,,,,,,,,,,,,,,,,,,,,,,,,,,,,,,,,,,,,,,,,,,,,,,,,,,,,,,
,,,,,,,,,,,,,029SSDL,2022-07-16_07h45.19.402,entire_exp,2022.1.1,Win32,142.9592566,,,,,,,,,,,,,,,,,,,,,,,,,,,,,,,,,,,,,,,,,,,,,,,,,,,,,,,,,,,,,,,,,,,,,,,,,,,,,,,,,,,,,,,,,,,,,,,,,,0,0,0,0,1,,,,,,,,,,,,,,,,,,,,,,,,,,,,,,,,,,,,,,,,,,,,,,,,,,,,,,,,,,,,,,,,,,,,,,,,,,,,,,,,,,,,
,,,,,,,,,,,,,029SSDL,2022-07-16_07h45.19.402,entire_exp,2022.1.1,Win32,142.9592566,,,,,,,,,,,,,,,,,,,,,,,,,,,,,,,,,,,,,,,,,,,,,,,,,,,,,,,,,,,,0,1,1,5,1,0,0,0,0,0,1,0,0,0,,,,,,,,,,,,,,,,,,,,,,,,,,,,,,,,,,,,,,,,,,,,,,,,,,,,,,,,,,,,,,,,,,,,,,,,,,,,,,,,,,,,,,,,,,,,,,,,,,,,,,,,,,,,,,,,,
,,,,,,,,,,,,,029SSDL,2022-07-16_07h45.19.402,entire_exp,2022.1.1,Win32,142.9592566,,,,,,,,,,,,,,,,,,,,,,,,,,,,,,,,,,,,,mental_span,2,T,,,,,,,,,,,,,,,,,,,,,,,,,,,,,,,,,,,ракета,кобра,картина,кепка,жвачка,,,,,,,,,,,,,,,,,,,,,,,,,ракета,кобра,карета,,жвачка,0,0,0,0,1,,,,,,,,,,,,,,,,,,,,,,,,,,,,,,,,,,,,,,,,,,,,,,,,,,,,,,,,,,,,,,,,,,,,,,,,,,
,,,,,,,,,,,,,029SSDL,2022-07-16_07h45.19.402,entire_exp,2022.1.1,Win32,142.9592566,,,,,,,,,,,,,,,,,,,,,,,,,,,,,,,,,,,,,mental_span,2,T,,,,,,,,,,,,,,,,,,,,,,,,,,,,,,,,,,,телега,свеча,кассета,салфетки,веник,,,,,,,,,,,,,,,,,,,,,,,,,телега,свечка,,салфетки,веник,1,0,1,0,1,,,,,,,,,,,,,,,,,,,,,,,,,,,,,,,,,,,,,,,,,,,,,,,,,,,,,,,,,,,,,,,,,,,,,,,,,,
,,,,,,,,,,,,,029SSDL,2022-07-16_07h45.19.402,entire_exp,2022.1.1,Win32,142.9592566,,,,,,,,,,,,,,,,,,,,,,,,,,,,,,,,,,,,,mental_span,2,T,,,,,,,,,,,,,,,,,,,,,,,,,,,,,,,,,,,книга,свиток,церковь,береза,священник,,,,,,,,,,,,,,,,,,,,,,,,,книга,свиток,церовь,береза,священник,2,0,2,0,1,,,,,,,,,,,,,,,,,,,,,,,,,,,,,,,,,,,,,,,,,,,,,,,,,,,,,,,,,,,,,,,,,,,,,,,,,,
,,,,,,,,,,,,,029SSDL,2022-07-16_07h45.19.402,entire_exp,2022.1.1,Win32,142.9592566,,,,,,,,,,,,,,,,,,,,,,,,,,,,,,,,,,,,,mental_span,2,T,,,,,,,,,,,,,,,,,,,,,,,,,,,,,,,,,,,кошка,живот,грузовик,рубашка,линейка,,,,,,,,,,,,,,,,,,,,,,,,,кошка,живот,грузовик,рубашка,линейка,3,0,3,0,1,,,,,,,,,,,,,,,,,,,,,,,,,,,,,,,,,,,,,,,,,,,,,,,,,,,,,,,,,,,,,,,,,,,,,,,,,,
,,,,,,,,,,,,,029SSDL,2022-07-16_07h45.19.402,entire_exp,2022.1.1,Win32,142.9592566,,,,,,,,,,,,,,,,,,,,,,,,,,,,,,,,,,,,,mental_span,2,T,,,,,,,,,,,,,,,,,,,,,,,,,,,,,,,,,,,катушка,кузнечик,шашлык,жираф,грабли,,,,,,,,,,,,,,,,,,,,,,,,,катушка,кузнечик,шашлык,жираф,грабли,4,0,4,0,1,,,,,,,,,,,,,,,,,,,,,,,,,,,,,,,,,,,,,,,,,,,,,,,,,,,,,,,,,,,,,,,,,,,,,,,,,,
,,,,,,,,,,,,,029SSDL,2022-07-16_07h45.19.402,entire_exp,2022.1.1,Win32,142.9592566,,,,,,,,,,,,,,,,,,,,,,,,,,,,,,,,,,,,,mental_span,2,T,,,,,,,,,,,,,,,,,,,,,,,,,,,,,,,,,,,пират,решетка,хомяк,шишка,комната,,,,,,,,,,,,,,,,,,,,,,,,,пират,решетка,хомяк,шишка,комната,5,0,5,0,1,,,,,,,,,,,,,,,,,,,,,,,,,,,,,,,,,,,,,,,,,,,,,,,,,,,,,,,,,,,,,,,,,,,,,,,,,,
,,,,,,,,,,,,,029SSDL,2022-07-16_07h45.19.402,entire_exp,2022.1.1,Win32,142.9592566,,,,,,,,,,,,,,,,,,,,,,,,,,,,,,,,,,,,,mental_span,2,T,,,,,,,,,,,,,,,,,,,,,,,,,,,,,,,,,,,дятел,веник,унитаз,рыцарь,пакет,,,,,,,,,,,,,,,,,,,,,,,,,дятел,веник,унитаз,рыцарь,пакет,6,0,6,0,1,,,,,,,,,,,,,,,,,,,,,,,,,,,,,,,,,,,,,,,,,,,,,,,,,,,,,,,,,,,,,,,,,,,,,,,,,,
,,,,,,,,,,,,,029SSDL,2022-07-16_07h45.19.402,entire_exp,2022.1.1,Win32,142.9592566,,,,,,,,,,,,,,,,,,,,,,,,,,,,,,,,,,,,,mental_span,2,T,,,,,,,,,,,,,,,,,,,,,,,,,,,,,,,,,,,брюки,солдат,лампа,яйцо,светофор,,,,,,,,,,,,,,,,,,,,,,,,,брюки,солдат,лампа,яйцо,светофор,7,0,7,0,1,,,,,,,,,,,,,,,,,,,,,,,,,,,,,,,,,,,,,,,,,,,,,,,,,,,,,,,,,,,,,,,,,,,,,,,,,,
,,,,,,,,,,,,,029SSDL,2022-07-16_07h45.19.402,entire_exp,2022.1.1,Win32,142.9592566,,,,,,,,,,,,,,,,,,,,,,,,,,,,,,,,,,,,,mental_span,2,T,,,,,,,,,,,,,,,,,,,,,,,,,,,,,,,,,,,барабан,блокнот,купальник,пылесос,сосиски,,,,,,,,,,,,,,,,,,,,,,,,,барабан,блонот,купальник,пылесос,сосиски,8,0,8,0,1,,,,,,,,,,,,,,,,,,,,,,,,,,,,,,,,,,,,,,,,,,,,,,,,,,,,,,,,,,,,,,,,,,,,,,,,,,
,,,,,,,,,,,,,029SSDL,2022-07-16_07h45.19.402,entire_exp,2022.1.1,Win32,142.9592566,,,,,,,,,,,,,,,,,,,,,,,,,,,,,,,,,,,,,mental_span,2,T,,,,,,,,,,,,,,,,,,,,,,,,,,,,,,,,,,,телескоп,печенье,бассейн,варежка,шапка,,,,,,,,,,,,,,,,,,,,,,,,,телескоп,печенье,бассейн,варежка,шапка,9,0,9,0,1,,,,,,,,,,,,,,,,,,,,,,,,,,,,,,,,,,,,,,,,,,,,,,,,,,,,,,,,,,,,,,,,,,,,,,,,,,
,,,,,,,,,,,,,029SSDL,2022-07-16_07h45.19.402,entire_exp,2022.1.1,Win32,142.9592566,,,,,,,,,,,,,,,,,,,,,,,,,,,,,,,,,,,,,mental_span,2,T,,,,,,,,,,,,,,,,,,,,,,,,,,,,,,,,,,,отвертка,радуга,камин,зебра,мельница,,,,,,,,,,,,,,,,,,,,,,,,,отвертка,радуга,камин,зебра,мельница,10,0,10,0,1,,,,,,,,,,,,,,,,,,,,,,,,,,,,,,,,,,,,,,,,,,,,,,,,,,,,,,,,,,,,,,,,,,,,,,,,,,
,,,,,,,,,,,,,029SSDL,2022-07-16_07h45.19.402,entire_exp,2022.1.1,Win32,142.9592566,,,,,,,,,,,,,,,,,,,,,,,,,,,,,,,,,,,,,mental_span,2,T,,,,,,,,,,,,,,,,,,,,,,,,,,,,,,,,,,,шпага,стрекоза,рулетка,дракон,арбуз,,,,,,,,,,,,,,,,,,,,,,,,,шпага,стреоза,рулетка,дракон,арбуз,11,0,11,0,1,,,,,,,,,,,,,,,,,,,,,,,,,,,,,,,,,,,,,,,,,,,,,,,,,,,,,,,,,,,,,,,,,,,,,,,,,,
,,,,,,,,,,,,,029SSDL,2022-07-16_07h45.19.402,entire_exp,2022.1.1,Win32,142.9592566,,,,,,,,,,,,,,,,,,,,,,,,,,,,,,,,,,,,,mental_span,2,T,,,,,,,,,,,,,,,,,,,,,,,,,,,,,,,,,,,клубок,лебедь,линейка,перец,блины,,,,,,,,,,,,,,,,,,,,,,,,,клубок,лебедь,линейка,перец,блины,12,0,12,0,1,,,,,,,,,,,,,,,,,,,,,,,,,,,,,,,,,,,,,,,,,,,,,,,,,,,,,,,,,,,,,,,,,,,,,,,,,,
,,,,,,,,,,,,,029SSDL,2022-07-16_07h45.19.402,entire_exp,2022.1.1,Win32,142.9592566,,,,,,,,,,,,,,,,,,,,,,,,,,,,,,,,,,,,,mental_span,2,T,,,,,,,,,,,,,,,,,,,,,,,,,,,,,,,,,,,фонтан,швабра,ружье,салфетки,башня,,,,,,,,,,,,,,,,,,,,,,,,,фонтан,швабра,ружье,салфетки,башня,13,0,13,0,1,,,,,,,,,,,,,,,,,,,,,,,,,,,,,,,,,,,,,,,,,,,,,,,,,,,,,,,,,,,,,,,,,,,,,,,,,,
,,,,,,,,,,,,,029SSDL,2022-07-16_07h45.19.402,entire_exp,2022.1.1,Win32,142.9592566,,,,,,,,,,,,,,,,,,,,,,,,,,,,,,,,,,,,,mental_span,2,T,,,,,,,,,,,,,,,,,,,,,,,,,,,,,,,,,,,цыпленок,фляга,скорпион,домино,снеговик,,,,,,,,,,,,,,,,,,,,,,,,,цыпленок,фляга,скоррион,домино,снеговик,14,0,14,0,1,,,,,,,,,,,,,,,,,,,,,,,,,,,,,,,,,,,,,,,,,,,,,,,,,,,,,,,,,,,,,,,,,,,,,,,,,,
,,,,,,,,,,,,,029SSDL,2022-07-16_07h45.19.402,entire_exp,2022.1.1,Win32,142.9592566,,,,,,,,,,,,,,,,,,,,,,,,,,,,,,,,,,,,,mental_span,2,T,,,,,,,,,,,,,,,,,,,,,,,,,,,,,,,,,,,лампа,пальто,картофель,браслет,автобус,,,,,,,,,,,,,,,,,,,,,,,,,лампа,пальто,картофель,браслет,автобус,15,0,15,0,1,,,,,,,,,,,,,,,,,,,,,,,,,,,,,,,,,,,,,,,,,,,,,,,,,,,,,,,,,,,,,,,,,,,,,,,,,,
,,,,,,,,,,,,,029SSDL,2022-07-16_07h45.19.402,entire_exp,2022.1.1,Win32,142.9592566,,,,,,,,,,,,,,,,,,,,,,11.05185163,,,,,,Умственная нагрузка,"Как много умственных усилий, как вам показалось на первый взгляд, требовалось для выполнения задания?",Низкая,Высокая,,,,,,mental_span,2,Q,,,,,,,,,,,,,,,,,,,,,,,,,,,,,,,,,,,,,,,,,,,,,,,,,,,,,,,,,,,,,,,,,,,,,,,,,,0,0,0,0,1,,,,,,,,,,,,,,,,,,,,,,,,,,,,,,,,,,,,,,,,,,,,,,,,,,,,,,,,,,,,,,,,,,,,,
,,,,,,,,,,,,,029SSDL,2022-07-16_07h45.19.402,entire_exp,2022.1.1,Win32,142.9592566,,,,,,,,,,,,,,,,,,,,,,5.007407294,,,,,,Физическая нагрузка,"Как много физических усилий, как вам показалось на первый взгляд, пришлось приложить для выполнения задания?",Низкая,Высокая,,,,,,mental_span,2,Q,,,,,,,,,,,,,,,,,,,,,,,,,,,,,,,,,,,,,,,,,,,,,,,,,,,,,,,,,,,,,,,,,,,,,,,,,,0,1,1,1,1,,,,,,,,,,,,,,,,,,,,,,,,,,,,,,,,,,,,,,,,,,,,,,,,,,,,,,,,,,,,,,,,,,,,,
,,,,,,,,,,,,,029SSDL,2022-07-16_07h45.19.402,entire_exp,2022.1.1,Win32,142.9592566,,,,,,,,,,,,,,,,,,,,,,7.155556008,,,,,,Давление времени,"Нужно было торопиться, чтобы выполнить задание, или можно было работать в своём темпе?",Слабое,Сильное,,,,,,mental_span,2,Q,,,,,,,,,,,,,,,,,,,,,,,,,,,,,,,,,,,,,,,,,,,,,,,,,,,,,,,,,,,,,,,,,,,,,,,,,,0,2,2,2,1,,,,,,,,,,,,,,,,,,,,,,,,,,,,,,,,,,,,,,,,,,,,,,,,,,,,,,,,,,,,,,,,,,,,,
,,,,,,,,,,,,,029SSDL,2022-07-16_07h45.19.402,entire_exp,2022.1.1,Win32,142.9592566,,,,,,,,,,,,,,,,,,,,,,11.00740786,,,,,,Успешность выполнения,"Как вы думаете, насколько успешно было выполнено задание?",Совсем не выполнено,Полностью выполнено,,,,,,mental_span,2,Q,,,,,,,,,,,,,,,,,,,,,,,,,,,,,,,,,,,,,,,,,,,,,,,,,,,,,,,,,,,,,,,,,,,,,,,,,,0,3,3,3,1,,,,,,,,,,,,,,,,,,,,,,,,,,,,,,,,,,,,,,,,,,,,,,,,,,,,,,,,,,,,,,,,,,,,,
,,,,,,,,,,,,,029SSDL,2022-07-16_07h45.19.402,entire_exp,2022.1.1,Win32,142.9592566,,,,,,,,,,,,,,,,,,,,,,8.340741193,,,,,,Усилия,Сколько усилий на самом деле вы приложили для выполнения задания?,Мало,Много,,,,,,mental_span,2,Q,,,,,,,,,,,,,,,,,,,,,,,,,,,,,,,,,,,,,,,,,,,,,,,,,,,,,,,,,,,,,,,,,,,,,,,,,,0,4,4,4,1,,,,,,,,,,,,,,,,,,,,,,,,,,,,,,,,,,,,,,,,,,,,,,,,,,,,,,,,,,,,,,,,,,,,,
,,,,,,,,,,,,,029SSDL,2022-07-16_07h45.19.402,entire_exp,2022.1.1,Win32,142.9592566,,,,,,,,,,,,,,,,,,,,,,4.56296285,,,,,,Уровень фрустрации,Насколько напряженным и раздражающим было задание?,Низкий,Высокий,,,,,,mental_span,2,Q,,,,,,,,,,,,,,,,,,,,,,,,,,,,,,,,,,,,,,,,,,,,,,,,,,,,,,,,,,,,,,,,,,,,,,,,,,0,5,5,5,1,,,,,,,,,,,,,,,,,,,,,,,,,,,,,,,,,,,,,,,,,,,,,,,,,,,,,,,,,,,,,,,,,,,,,
,,,,,,,,,,,,,029SSDL,2022-07-16_07h45.19.402,entire_exp,2022.1.1,Win32,142.9592566,,,,,,,,,,,,,,,,,,,,,,,,,,,,,,,,,,,,,,,,,,,,,,,,,,,,,,,,,,,,,,,,,,,,,,,,,,,,,,,,,,,,,,,,,,,,,,,,,,,,,,,,,,,,,,,,,,,,,,0,0,0,0,1,,,,,,,,,,,,,,,,,,,,,,,,,,,,,,,,,,,,,,,,,,,,,,,,,,,,,,,,,,,,,,,,
,,,,,,,,,,,,,029SSDL,2022-07-16_07h45.19.402,entire_exp,2022.1.1,Win32,142.9592566,,,,,,,,,,,,,,,,,,,,,,,,,,,,,,,,,,,,,,,,,,,,,,,,,,,,,,,,,,,,0,2,2,4,1,0,0,0,0,1,0,0,0,0,,,,,,,,,,,,,,,,,,,,,,,,,,,,,,,,,,,,,,,,,,,,,,,,,,,,,,,,,,,,,,,,,,,,,,,,,,,,,,,,,,,,,,,,,,,,,,,,,,,,,,,,,,,,,,,,,
,,,,,,,,,,,,,029SSDL,2022-07-16_07h45.19.402,entire_exp,2022.1.1,Win32,142.9592566,,,,,,,,,,,,,,,,,,,,,,,,,,,,,,,,,,,,,sternberg,3,,,,,,,,,,,,,,,,,,,,,,,,,,,,,,,,,,,,,,,,,,,,,,,,,,,,,,,,,,,,,,,,,,,,,,,,,,,,,,,,,,,,,"[""Х"",""В"",""Р"",""Г"",""Н"",""С"",""К"",""Ж"",""З"",""Ч"",""М"",""Б""]",1,М,left,0,3.3649,space,5.7856,0,0,0,0,1,,,,,,,,,,,,,,,,,,,,,,,,,,,,,,,,,,,,,,,,,,,,,,,,,,,
,,,,,,,,,,,,,029SSDL,2022-07-16_07h45.19.402,entire_exp,2022.1.1,Win32,142.9592566,,,,,,,,,,,,,,,,,,,,,,,,,,,,,,,,,,,,,sternberg,3,,,,,,,,,,,,,,,,,,,,,,,,,,,,,,,,,,,,,,,,,,,,,,,,,,,,,,,,,,,,,,,,,,,,,,,,,,,,,,,,,,,,,"[""Г"",""М"",""Ц"",""Й"",""Н"",""Б"",""Ш"",""Л"",""Д"",""З"",""П"",""Т""]",1,З,right,1,1.795,space,1.0168,1,0,1,0,1,,,,,,,,,,,,,,,,,,,,,,,,,,,,,,,,,,,,,,,,,,,,,,,,,,,
,,,,,,,,,,,,,029SSDL,2022-07-16_07h45.19.402,entire_exp,2022.1.1,Win32,142.9592566,,,,,,,,,,,,,,,,,,,,,,,,,,,,,,,,,,,,,sternberg,3,,,,,,,,,,,,,,,,,,,,,,,,,,,,,,,,,,,,,,,,,,,,,,,,,,,,,,,,,,,,,,,,,,,,,,,,,,,,,,,,,,,,,"[""Н"",""Ж"",""Л"",""Ш"",""Х"",""Р"",""Г"",""С"",""М"",""К"",""Щ"",""Ч""]",1,Ж,left,0,2.9085,space,1.3014,2,0,2,0,1,,,,,,,,,,,,,,,,,,,,,,,,,,,,,,,,,,,,,,,,,,,,,,,,,,,
,,,,,,,,,,,,,029SSDL,2022-07-16_07h45.19.402,entire_exp,2022.1.1,Win32,142.9592566,,,,,,,,,,,,,,,,,,,,,,,,,,,,,,,,,,,,,sternberg,3,,,,,,,,,,,,,,,,,,,,,,,,,,,,,,,,,,,,,,,,,,,,,,,,,,,,,,,,,,,,,,,,,,,,,,,,,,,,,,,,,,,,,"[""Г"",""З"",""Ф"",""Х"",""Р"",""Т"",""С"",""В"",""Й"",""Ц"",""К"",""Б""]",0,Ж,left,1,1.2427,space,0.8063,3,0,3,0,1,,,,,,,,,,,,,,,,,,,,,,,,,,,,,,,,,,,,,,,,,,,,,,,,,,,
,,,,,,,,,,,,,029SSDL,2022-07-16_07h45.19.402,entire_exp,2022.1.1,Win32,142.9592566,,,,,,,,,,,,,,,,,,,,,,,,,,,,,,,,,,,,,sternberg,3,,,,,,,,,,,,,,,,,,,,,,,,,,,,,,,,,,,,,,,,,,,,,,,,,,,,,,,,,,,,,,,,,,,,,,,,,,,,,,,,,,,,,"[""В"",""П"",""Р"",""М"",""Ш"",""Н"",""Д"",""Т"",""Ц"",""Й"",""Г"",""С""]",1,Й,left,0,2.4621,space,0.9627,4,0,4,0,1,,,,,,,,,,,,,,,,,,,,,,,,,,,,,,,,,,,,,,,,,,,,,,,,,,,
,,,,,,,,,,,,,029SSDL,2022-07-16_07h45.19.402,entire_exp,2022.1.1,Win32,142.9592566,,,,,,,,,,,,,,,,,,,,,,,,,,,,,,,,,,,,,sternberg,3,,,,,,,,,,,,,,,,,,,,,,,,,,,,,,,,,,,,,,,,,,,,,,,,,,,,,,,,,,,,,,,,,,,,,,,,,,,,,,,,,,,,,"[""М"",""С"",""Й"",""Р"",""Г"",""Ц"",""Ф"",""Т"",""В"",""П"",""Д"",""К""]",0,Л,left,1,1.8222,space,0.4374,5,0,5,0,1,,,,,,,,,,,,,,,,,,,,,,,,,,,,,,,,,,,,,,,,,,,,,,,,,,,
,,,,,,,,,,,,,029SSDL,2022-07-16_07h45.19.402,entire_exp,2022.1.1,Win32,142.9592566,,,,,,,,,,,,,,,,,,,,,,,,,,,,,,,,,,,,,sternberg,3,,,,,,,,,,,,,,,,,,,,,,,,,,,,,,,,,,,,,,,,,,,,,,,,,,,,,,,,,,,,,,,,,,,,,,,,,,,,,,,,,,,,,"[""Й"",""Ч"",""Щ"",""Ц"",""К"",""Б"",""М"",""Д"",""Н"",""В"",""Х"",""Р""]",1,В,right,1,1.256,space,0.7263,6,0,6,0,1,,,,,,,,,,,,,,,,,,,,,,,,,,,,,,,,,,,,,,,,,,,,,,,,,,,
,,,,,,,,,,,,,029SSDL,2022-07-16_07h45.19.402,entire_exp,2022.1.1,Win32,142.9592566,,,,,,,,,,,,,,,,,,,,,,,,,,,,,,,,,,,,,sternberg,3,,,,,,,,,,,,,,,,,,,,,,,,,,,,,,,,,,,,,,,,,,,,,,,,,,,,,,,,,,,,,,,,,,,,,,,,,,,,,,,,,,,,,"[""Р"",""Л"",""Щ"",""Ч"",""Ц"",""В"",""К"",""Г"",""Д"",""Ш"",""Х"",""З""]",0,Ф,left,1,2.4962,space,0.9465,7,0,7,0,1,,,,,,,,,,,,,,,,,,,,,,,,,,,,,,,,,,,,,,,,,,,,,,,,,,,
,,,,,,,,,,,,,029SSDL,2022-07-16_07h45.19.402,entire_exp,2022.1.1,Win32,142.9592566,,,,,,,,,,,,,,,,,,,,,,,,,,,,,,,,,,,,,sternberg,3,,,,,,,,,,,,,,,,,,,,,,,,,,,,,,,,,,,,,,,,,,,,,,,,,,,,,,,,,,,,,,,,,,,,,,,,,,,,,,,,,,,,,"[""Т"",""С"",""Ф"",""Л"",""М"",""Ч"",""Б"",""Й"",""Ж"",""Щ"",""П"",""Г""]",1,Б,left,0,0.8149,space,0.8917,8,0,8,0,1,,,,,,,,,,,,,,,,,,,,,,,,,,,,,,,,,,,,,,,,,,,,,,,,,,,
,,,,,,,,,,,,,029SSDL,2022-07-16_07h45.19.402,entire_exp,2022.1.1,Win32,142.9592566,,,,,,,,,,,,,,,,,,,,,,,,,,,,,,,,,,,,,sternberg,3,,,,,,,,,,,,,,,,,,,,,,,,,,,,,,,,,,,,,,,,,,,,,,,,,,,,,,,,,,,,,,,,,,,,,,,,,,,,,,,,,,,,,"[""К"",""Ж"",""С"",""Щ"",""Т"",""Ф"",""Х"",""Р"",""Л"",""Ч"",""Ц"",""Д""]",1,С,right,1,2.0077,space,0.8399,9,0,9,0,1,,,,,,,,,,,,,,,,,,,,,,,,,,,,,,,,,,,,,,,,,,,,,,,,,,,
,,,,,,,,,,,,,029SSDL,2022-07-16_07h45.19.402,entire_exp,2022.1.1,Win32,142.9592566,,,,,,,,,,,,,,,,,,,,,,,,,,,,,,,,,,,,,sternberg,3,,,,,,,,,,,,,,,,,,,,,,,,,,,,,,,,,,,,,,,,,,,,,,,,,,,,,,,,,,,,,,,,,,,,,,,,,,,,,,,,,,,,,"[""М"",""Л"",""Ф"",""Г"",""Ж"",""Н"",""С"",""Ш"",""Р"",""Б"",""Ц"",""Д""]",0,К,left,1,2.2983,space,0.8316,10,0,10,0,1,,,,,,,,,,,,,,,,,,,,,,,,,,,,,,,,,,,,,,,,,,,,,,,,,,,
,,,,,,,,,,,,,029SSDL,2022-07-16_07h45.19.402,entire_exp,2022.1.1,Win32,142.9592566,,,,,,,,,,,,,,,,,,,,,,,,,,,,,,,,,,,,,sternberg,3,,,,,,,,,,,,,,,,,,,,,,,,,,,,,,,,,,,,,,,,,,,,,,,,,,,,,,,,,,,,,,,,,,,,,,,,,,,,,,,,,,,,,"[""Б"",""К"",""Ж"",""Р"",""Ч"",""Щ"",""Л"",""С"",""Г"",""Й"",""Д"",""М""]",1,Ж,right,1,2.4616,space,1.0707,11,0,11,0,1,,,,,,,,,,,,,,,,,,,,,,,,,,,,,,,,,,,,,,,,,,,,,,,,,,,
,,,,,,,,,,,,,029SSDL,2022-07-16_07h45.19.402,entire_exp,2022.1.1,Win32,142.9592566,,,,,,,,,,,,,,,,,,,,,,,,,,,,,,,,,,,,,sternberg,3,,,,,,,,,,,,,,,,,,,,,,,,,,,,,,,,,,,,,,,,,,,,,,,,,,,,,,,,,,,,,,,,,,,,,,,,,,,,,,,,,,,,,"[""М"",""Ж"",""Ф"",""Л"",""З"",""Щ"",""Д"",""П"",""К"",""С"",""Н"",""Ч""]",0,Х,left,1,2.1413,space,0.5486,12,0,12,0,1,,,,,,,,,,,,,,,,,,,,,,,,,,,,,,,,,,,,,,,,,,,,,,,,,,,
,,,,,,,,,,,,,029SSDL,2022-07-16_07h45.19.402,entire_exp,2022.1.1,Win32,142.9592566,,,,,,,,,,,,,,,,,,,,,,,,,,,,,,,,,,,,,sternberg,3,,,,,,,,,,,,,,,,,,,,,,,,,,,,,,,,,,,,,,,,,,,,,,,,,,,,,,,,,,,,,,,,,,,,,,,,,,,,,,,,,,,,,"[""К"",""Й"",""Х"",""Н"",""В"",""Ф"",""Б"",""З"",""М"",""С"",""П"",""Ж""]",0,Р,left,1,1.3128,space,16.6909,13,0,13,0,1,,,,,,,,,,,,,,,,,,,,,,,,,,,,,,,,,,,,,,,,,,,,,,,,,,,
,,,,,,,,,,,,,029SSDL,2022-07-16_07h45.19.402,entire_exp,2022.1.1,Win32,142.9592566,,,,,,,,,,,,,,,,,,,,,,,,,,,,,,,,,,,,,sternberg,3,,,,,,,,,,,,,,,,,,,,,,,,,,,,,,,,,,,,,,,,,,,,,,,,,,,,,,,,,,,,,,,,,,,,,,,,,,,,,,,,,,,,,"[""Б"",""Ж"",""Ч"",""Ф"",""Ц"",""Д"",""С"",""Й"",""В"",""К"",""Н"",""Л""]",0,Г,left,1,12.8728,space,8.8219,14,0,14,0,1,,,,,,,,,,,,,,,,,,,,,,,,,,,,,,,,,,,,,,,,,,,,,,,,,,,
,,,,,,,,,,,,,029SSDL,2022-07-16_07h45.19.402,entire_exp,2022.1.1,Win32,142.9592566,,,,,,,,,,,,,,,,,,,,,,,,,,,,,,,,,,,,,sternberg,3,,,,,,,,,,,,,,,,,,,,,,,,,,,,,,,,,,,,,,,,,,,,,,,,,,,,,,,,,,,,,,,,,,,,,,,,,,,,,,,,,,,,,"[""Ш"",""Щ"",""К"",""З"",""Ч"",""Ж"",""М"",""Л"",""Й"",""Р"",""Ц"",""Х""]",0,С,left,1,8.5179,space,5.8644,15,0,15,0,1,,,,,,,,,,,,,,,,,,,,,,,,,,,,,,,,,,,,,,,,,,,,,,,,,,,
,,,,,,,,,,,,,029SSDL,2022-07-16_07h45.19.402,entire_exp,2022.1.1,Win32,142.9592566,,,,,,,,,,,,,,,,,,,,,,15.00740786,,,,,,Умственная нагрузка,"Как много умственных усилий, как вам показалось на первый взгляд, требовалось для выполнения задания?",Низкая,Высокая,,,,,,sternberg,3,Q,,,,,,,,,,,,,,,,,,,,,,,,,,,,,,,,,,,,,,,,,,,,,,,,,,,,,,,,,,,,,,,,,,,,,,,,,,,,,,,,,,,,,,,,,,,,,,,,,0,0,0,0,1,,,,,,,,,,,,,,,,,,,,,,,,,,,,,,,,,,,,,,,,,,,,,,
,,,,,,,,,,,,,029SSDL,2022-07-16_07h45.19.402,entire_exp,2022.1.1,Win32,142.9592566,,,,,,,,,,,,,,,,,,,,,,2.859259146,,,,,,Физическая нагрузка,"Как много физических усилий, как вам показалось на первый взгляд, пришлось приложить для выполнения задания?",Низкая,Высокая,,,,,,sternberg,3,Q,,,,,,,,,,,,,,,,,,,,,,,,,,,,,,,,,,,,,,,,,,,,,,,,,,,,,,,,,,,,,,,,,,,,,,,,,,,,,,,,,,,,,,,,,,,,,,,,,0,1,1,1,1,,,,,,,,,,,,,,,,,,,,,,,,,,,,,,,,,,,,,,,,,,,,,,
,,,,,,,,,,,,,029SSDL,2022-07-16_07h45.19.402,entire_exp,2022.1.1,Win32,142.9592566,,,,,,,,,,,,,,,,,,,,,,2.148148148,,,,,,Давление времени,"Нужно было торопиться, чтобы выполнить задание, или можно было работать в своём темпе?",Слабое,Сильное,,,,,,sternberg,3,Q,,,,,,,,,,,,,,,,,,,,,,,,,,,,,,,,,,,,,,,,,,,,,,,,,,,,,,,,,,,,,,,,,,,,,,,,,,,,,,,,,,,,,,,,,,,,,,,,,0,2,2,2,1,,,,,,,,,,,,,,,,,,,,,,,,,,,,,,,,,,,,,,,,,,,,,,
,,,,,,,,,,,,,029SSDL,2022-07-16_07h45.19.402,entire_exp,2022.1.1,Win32,142.9592566,,,,,,,,,,,,,,,,,,,,,,10.08888866,,,,,,Успешность выполнения,"Как вы думаете, насколько успешно было выполнено задание?",Совсем не выполнено,Полностью выполнено,,,,,,sternberg,3,Q,,,,,,,,,,,,,,,,,,,,,,,,,,,,,,,,,,,,,,,,,,,,,,,,,,,,,,,,,,,,,,,,,,,,,,,,,,,,,,,,,,,,,,,,,,,,,,,,,0,3,3,3,1,,,,,,,,,,,,,,,,,,,,,,,,,,,,,,,,,,,,,,,,,,,,,,
,,,,,,,,,,,,,029SSDL,2022-07-16_07h45.19.402,entire_exp,2022.1.1,Win32,142.9592566,,,,,,,,,,,,,,,,,,,,,,12.90370348,,,,,,Усилия,Сколько усилий на самом деле вы приложили для выполнения задания?,Мало,Много,,,,,,sternberg,3,Q,,,,,,,,,,,,,,,,,,,,,,,,,,,,,,,,,,,,,,,,,,,,,,,,,,,,,,,,,,,,,,,,,,,,,,,,,,,,,,,,,,,,,,,,,,,,,,,,,0,4,4,4,1,,,,,,,,,,,,,,,,,,,,,,,,,,,,,,,,,,,,,,,,,,,,,,
,,,,,,,,,,,,,029SSDL,2022-07-16_07h45.19.402,entire_exp,2022.1.1,Win32,142.9592566,,,,,,,,,,,,,,,,,,,,,,13.1703706,,,,,,Уровень фрустрации,Насколько напряженным и раздражающим было задание?,Низкий,Высокий,,,,,,sternberg,3,Q,,,,,,,,,,,,,,,,,,,,,,,,,,,,,,,,,,,,,,,,,,,,,,,,,,,,,,,,,,,,,,,,,,,,,,,,,,,,,,,,,,,,,,,,,,,,,,,,,0,5,5,5,1,,,,,,,,,,,,,,,,,,,,,,,,,,,,,,,,,,,,,,,,,,,,,,
,,,,,,,,,,,,,029SSDL,2022-07-16_07h45.19.402,entire_exp,2022.1.1,Win32,142.9592566,,,,,,,,,,,,,,,,,,,,,,,,,,,,,,,,,,,,,,,,,,,,,,,,,,,,,,,,,,,,,,,,,,,,,,,,,,,,,,,,,,,,,,,,,,,,,,,,,,,,,,,,,,,,,,,,,,,,,,,,,,,,,,,,,,,,,,,,,,,,,0,0,0,0,1,,,,,,,,,,,,,,,,,,,,,,,,,,,,,,,,,,,,,,,,,
,,,,,,,,,,,,,029SSDL,2022-07-16_07h45.19.402,entire_exp,2022.1.1,Win32,142.9592566,,,,,,,,,,,,,,,,,,,,,,,,,,,,,,,,,,,,,,,,,,,,,,,,,,,,,,,,,,,,0,3,3,8,1,0,0,0,0,0,0,0,0,1,,,,,,,,,,,,,,,,,,,,,,,,,,,,,,,,,,,,,,,,,,,,,,,,,,,,,,,,,,,,,,,,,,,,,,,,,,,,,,,,,,,,,,,,,,,,,,,,,,,,,,,,,,,,,,,,,
,,,,,,,,,,,,,029SSDL,2022-07-16_07h45.19.402,entire_exp,2022.1.1,Win32,142.9592566,,,,,,,,,,,,,,,,,,,,,,,,,,,,,,,,"[-0.4,0]",right,images/base/2_b.png,images/combined/2_b_x_45_y_0_z_270.png,270,mental_rotation,2,T,,,,,,,,,,,,,,,,,,,,,,,,,,,,,,,,,,,,,,,,,,,,,,,,,,,,,,,,,,,,,,,,,,,,,,,,,,,,,,,,,,,,,,,,,,,,,,,,,,,,,,,,,,,45,right,1,13.0477,space,0.8542,0,0,0,0,1,,,,,,,,,,,,,,,,,,,,,,,,,,,,,,
,,,,,,,,,,,,,029SSDL,2022-07-16_07h45.19.402,entire_exp,2022.1.1,Win32,142.9592566,,,,,,,,,,,,,,,,,,,,,,,,,,,,,,,,"[-0.4,0]",left,images/base/9_b.png,images/combined/9_a_x_45_y_0_z_90.png,90,mental_rotation,2,T,,,,,,,,,,,,,,,,,,,,,,,,,,,,,,,,,,,,,,,,,,,,,,,,,,,,,,,,,,,,,,,,,,,,,,,,,,,,,,,,,,,,,,,,,,,,,,,,,,,,,,,,,,,45,left,1,23.8805,space,0.9828,1,0,1,0,1,,,,,,,,,,,,,,,,,,,,,,,,,,,,,,
,,,,,,,,,,,,,029SSDL,2022-07-16_07h45.19.402,entire_exp,2022.1.1,Win32,142.9592566,,,,,,,,,,,,,,,,,,,,,,,,,,,,,,,,"[-0.4,0]",right,images/base/7_b.png,images/combined/7_b_x_315_y_0_z_90.png,90,mental_rotation,2,T,,,,,,,,,,,,,,,,,,,,,,,,,,,,,,,,,,,,,,,,,,,,,,,,,,,,,,,,,,,,,,,,,,,,,,,,,,,,,,,,,,,,,,,,,,,,,,,,,,,,,,,,,,,315,right,1,8.8804,space,0.5349,2,0,2,0,1,,,,,,,,,,,,,,,,,,,,,,,,,,,,,,
,,,,,,,,,,,,,029SSDL,2022-07-16_07h45.19.402,entire_exp,2022.1.1,Win32,142.9592566,,,,,,,,,,,,,,,,,,,,,,,,,,,,,,,,"[0.4,0]",right,images/base/10_a.png,images/combined/10_a_x_315_y_0_z_90.png,90,mental_rotation,2,T,,,,,,,,,,,,,,,,,,,,,,,,,,,,,,,,,,,,,,,,,,,,,,,,,,,,,,,,,,,,,,,,,,,,,,,,,,,,,,,,,,,,,,,,,,,,,,,,,,,,,,,,,,,315,right,1,6.9623,space,0.3364,3,0,3,0,1,,,,,,,,,,,,,,,,,,,,,,,,,,,,,,
,,,,,,,,,,,,,029SSDL,2022-07-16_07h45.19.402,entire_exp,2022.1.1,Win32,142.9592566,,,,,,,,,,,,,,,,,,,,,,,,,,,,,,,,"[-0.4,0]",left,images/base/16_b.png,images/combined/16_a_x_45_y_0_z_90.png,90,mental_rotation,2,T,,,,,,,,,,,,,,,,,,,,,,,,,,,,,,,,,,,,,,,,,,,,,,,,,,,,,,,,,,,,,,,,,,,,,,,,,,,,,,,,,,,,,,,,,,,,,,,,,,,,,,,,,,,45,left,1,12.883,space,0.6343,4,0,4,0,1,,,,,,,,,,,,,,,,,,,,,,,,,,,,,,
,,,,,,,,,,,,,029SSDL,2022-07-16_07h45.19.402,entire_exp,2022.1.1,Win32,142.9592566,,,,,,,,,,,,,,,,,,,,,,,,,,,,,,,,"[-0.4,0]",right,images/base/15_a.png,images/combined/15_a_x_45_y_0_z_90.png,90,mental_rotation,2,T,,,,,,,,,,,,,,,,,,,,,,,,,,,,,,,,,,,,,,,,,,,,,,,,,,,,,,,,,,,,,,,,,,,,,,,,,,,,,,,,,,,,,,,,,,,,,,,,,,,,,,,,,,,45,right,1,6.3431,space,0.3149,5,0,5,0,1,,,,,,,,,,,,,,,,,,,,,,,,,,,,,,
,,,,,,,,,,,,,029SSDL,2022-07-16_07h45.19.402,entire_exp,2022.1.1,Win32,142.9592566,,,,,,,,,,,,,,,,,,,,,,,,,,,,,,,,"[-0.4,0]",left,images/base/8_a.png,images/combined/8_b_x_315_y_0_z_270.png,270,mental_rotation,2,T,,,,,,,,,,,,,,,,,,,,,,,,,,,,,,,,,,,,,,,,,,,,,,,,,,,,,,,,,,,,,,,,,,,,,,,,,,,,,,,,,,,,,,,,,,,,,,,,,,,,,,,,,,,315,left,1,13.5824,space,0.6489,6,0,6,0,1,,,,,,,,,,,,,,,,,,,,,,,,,,,,,,
,,,,,,,,,,,,,029SSDL,2022-07-16_07h45.19.402,entire_exp,2022.1.1,Win32,142.9592566,,,,,,,,,,,,,,,,,,,,,,,,,,,,,,,,"[-0.4,0]",left,images/base/12_a.png,images/combined/12_b_x_45_y_0_z_270.png,270,mental_rotation,2,T,,,,,,,,,,,,,,,,,,,,,,,,,,,,,,,,,,,,,,,,,,,,,,,,,,,,,,,,,,,,,,,,,,,,,,,,,,,,,,,,,,,,,,,,,,,,,,,,,,,,,,,,,,,45,left,1,8.6244,space,0.3418,7,0,7,0,1,,,,,,,,,,,,,,,,,,,,,,,,,,,,,,
,,,,,,,,,,,,,029SSDL,2022-07-16_07h45.19.402,entire_exp,2022.1.1,Win32,142.9592566,,,,,,,,,,,,,,,,,,,,,,,,,,,,,,,,"[-0.4,0]",left,images/base/6_a.png,images/combined/6_b_x_45_y_0_z_270.png,270,mental_rotation,2,T,,,,,,,,,,,,,,,,,,,,,,,,,,,,,,,,,,,,,,,,,,,,,,,,,,,,,,,,,,,,,,,,,,,,,,,,,,,,,,,,,,,,,,,,,,,,,,,,,,,,,,,,,,,45,left,1,6.8805,space,0.3789,8,0,8,0,1,,,,,,,,,,,,,,,,,,,,,,,,,,,,,,
,,,,,,,,,,,,,029SSDL,2022-07-16_07h45.19.402,entire_exp,2022.1.1,Win32,142.9592566,,,,,,,,,,,,,,,,,,,,,,,,,,,,,,,,"[-0.4,0]",left,images/base/14_b.png,images/combined/14_a_x_45_y_0_z_90.png,90,mental_rotation,2,T,,,,,,,,,,,,,,,,,,,,,,,,,,,,,,,,,,,,,,,,,,,,,,,,,,,,,,,,,,,,,,,,,,,,,,,,,,,,,,,,,,,,,,,,,,,,,,,,,,,,,,,,,,,45,left,1,7.4888,space,0.2732,9,0,9,0,1,,,,,,,,,,,,,,,,,,,,,,,,,,,,,,
,,,,,,,,,,,,,029SSDL,2022-07-16_07h45.19.402,entire_exp,2022.1.1,Win32,142.9592566,,,,,,,,,,,,,,,,,,,,,,,,,,,,,,,,"[-0.4,0]",left,images/base/11_a.png,images/combined/11_b_x_45_y_0_z_90.png,90,mental_rotation,2,T,,,,,,,,,,,,,,,,,,,,,,,,,,,,,,,,,,,,,,,,,,,,,,,,,,,,,,,,,,,,,,,,,,,,,,,,,,,,,,,,,,,,,,,,,,,,,,,,,,,,,,,,,,,45,left,1,11.7972,space,0.266,10,0,10,0,1,,,,,,,,,,,,,,,,,,,,,,,,,,,,,,
,,,,,,,,,,,,,029SSDL,2022-07-16_07h45.19.402,entire_exp,2022.1.1,Win32,142.9592566,,,,,,,,,,,,,,,,,,,,,,,,,,,,,,,,"[0.4,0]",left,images/base/13_b.png,images/combined/13_a_x_45_y_0_z_270.png,270,mental_rotation,2,T,,,,,,,,,,,,,,,,,,,,,,,,,,,,,,,,,,,,,,,,,,,,,,,,,,,,,,,,,,,,,,,,,,,,,,,,,,,,,,,,,,,,,,,,,,,,,,,,,,,,,,,,,,,45,left,1,5.2889,space,0.2374,11,0,11,0,1,,,,,,,,,,,,,,,,,,,,,,,,,,,,,,
,,,,,,,,,,,,,029SSDL,2022-07-16_07h45.19.402,entire_exp,2022.1.1,Win32,142.9592566,,,,,,,,,,,,,,,,,,,,,,,,,,,,,,,,"[-0.4,0]",left,images/base/5_a.png,images/combined/5_b_x_315_y_0_z_90.png,90,mental_rotation,2,T,,,,,,,,,,,,,,,,,,,,,,,,,,,,,,,,,,,,,,,,,,,,,,,,,,,,,,,,,,,,,,,,,,,,,,,,,,,,,,,,,,,,,,,,,,,,,,,,,,,,,,,,,,,315,left,1,11.3348,space,0.3375,12,0,12,0,1,,,,,,,,,,,,,,,,,,,,,,,,,,,,,,
,,,,,,,,,,,,,029SSDL,2022-07-16_07h45.19.402,entire_exp,2022.1.1,Win32,142.9592566,,,,,,,,,,,,,,,,,,,,,,,,,,,,,,,,"[-0.4,0]",left,images/base/4_b.png,images/combined/4_a_x_45_y_0_z_90.png,90,mental_rotation,2,T,,,,,,,,,,,,,,,,,,,,,,,,,,,,,,,,,,,,,,,,,,,,,,,,,,,,,,,,,,,,,,,,,,,,,,,,,,,,,,,,,,,,,,,,,,,,,,,,,,,,,,,,,,,45,left,1,6.6113,space,0.3249,13,0,13,0,1,,,,,,,,,,,,,,,,,,,,,,,,,,,,,,
,,,,,,,,,,,,,029SSDL,2022-07-16_07h45.19.402,entire_exp,2022.1.1,Win32,142.9592566,,,,,,,,,,,,,,,,,,,,,,,,,,,,,,,,"[-0.4,0]",left,images/base/3_a.png,images/combined/3_b_x_315_y_0_z_90.png,90,mental_rotation,2,T,,,,,,,,,,,,,,,,,,,,,,,,,,,,,,,,,,,,,,,,,,,,,,,,,,,,,,,,,,,,,,,,,,,,,,,,,,,,,,,,,,,,,,,,,,,,,,,,,,,,,,,,,,,315,left,1,10.7734,space,0.2898,14,0,14,0,1,,,,,,,,,,,,,,,,,,,,,,,,,,,,,,
,,,,,,,,,,,,,029SSDL,2022-07-16_07h45.19.402,entire_exp,2022.1.1,Win32,142.9592566,,,,,,,,,,,,,,,,,,,,,,,,,,,,,,,,"[-0.4,0]",right,images/base/1_a.png,images/combined/1_a_x_315_y_0_z_270.png,270,mental_rotation,2,T,,,,,,,,,,,,,,,,,,,,,,,,,,,,,,,,,,,,,,,,,,,,,,,,,,,,,,,,,,,,,,,,,,,,,,,,,,,,,,,,,,,,,,,,,,,,,,,,,,,,,,,,,,,315,right,1,4.8332,space,0.5857,15,0,15,0,1,,,,,,,,,,,,,,,,,,,,,,,,,,,,,,
,,,,,,,,,,,,,029SSDL,2022-07-16_07h45.19.402,entire_exp,2022.1.1,Win32,142.9592566,,,,,,,,,,,,,,,,,,,,,,12.84444512,,,,,,Умственная нагрузка,"Как много умственных усилий, как вам показалось на первый взгляд, требовалось для выполнения задания?",Низкая,Высокая,,,,,,mental_rotation,2,Q,,,,,,,,,,,,,,,,,,,,,,,,,,,,,,,,,,,,,,,,,,,,,,,,,,,,,,,,,,,,,,,,,,,,,,,,,,,,,,,,,,,,,,,,,,,,,,,,,,,,,,,,,,,,,,,,,,,,,,0,0,0,0,1,,,,,,,,,,,,,,,,,,,,,,,,,
,,,,,,,,,,,,,029SSDL,2022-07-16_07h45.19.402,entire_exp,2022.1.1,Win32,142.9592566,,,,,,,,,,,,,,,,,,,,,,3.881481595,,,,,,Физическая нагрузка,"Как много физических усилий, как вам показалось на первый взгляд, пришлось приложить для выполнения задания?",Низкая,Высокая,,,,,,mental_rotation,2,Q,,,,,,,,,,,,,,,,,,,,,,,,,,,,,,,,,,,,,,,,,,,,,,,,,,,,,,,,,,,,,,,,,,,,,,,,,,,,,,,,,,,,,,,,,,,,,,,,,,,,,,,,,,,,,,,,,,,,,,0,1,1,1,1,,,,,,,,,,,,,,,,,,,,,,,,,
,,,,,,,,,,,,,029SSDL,2022-07-16_07h45.19.402,entire_exp,2022.1.1,Win32,142.9592566,,,,,,,,,,,,,,,,,,,,,,1.94074108,,,,,,Давление времени,"Нужно было торопиться, чтобы выполнить задание, или можно было работать в своём темпе?",Слабое,Сильное,,,,,,mental_rotation,2,Q,,,,,,,,,,,,,,,,,,,,,,,,,,,,,,,,,,,,,,,,,,,,,,,,,,,,,,,,,,,,,,,,,,,,,,,,,,,,,,,,,,,,,,,,,,,,,,,,,,,,,,,,,,,,,,,,,,,,,,0,2,2,2,1,,,,,,,,,,,,,,,,,,,,,,,,,
,,,,,,,,,,,,,029SSDL,2022-07-16_07h45.19.402,entire_exp,2022.1.1,Win32,142.9592566,,,,,,,,,,,,,,,,,,,,,,12.08888866,,,,,,Успешность выполнения,"Как вы думаете, насколько успешно было выполнено задание?",Совсем не выполнено,Полностью выполнено,,,,,,mental_rotation,2,Q,,,,,,,,,,,,,,,,,,,,,,,,,,,,,,,,,,,,,,,,,,,,,,,,,,,,,,,,,,,,,,,,,,,,,,,,,,,,,,,,,,,,,,,,,,,,,,,,,,,,,,,,,,,,,,,,,,,,,,0,3,3,3,1,,,,,,,,,,,,,,,,,,,,,,,,,
,,,,,,,,,,,,,029SSDL,2022-07-16_07h45.19.402,entire_exp,2022.1.1,Win32,142.9592566,,,,,,,,,,,,,,,,,,,,,,6.918519197,,,,,,Усилия,Сколько усилий на самом деле вы приложили для выполнения задания?,Мало,Много,,,,,,mental_rotation,2,Q,,,,,,,,,,,,,,,,,,,,,,,,,,,,,,,,,,,,,,,,,,,,,,,,,,,,,,,,,,,,,,,,,,,,,,,,,,,,,,,,,,,,,,,,,,,,,,,,,,,,,,,,,,,,,,,,,,,,,,0,4,4,4,1,,,,,,,,,,,,,,,,,,,,,,,,,
,,,,,,,,,,,,,029SSDL,2022-07-16_07h45.19.402,entire_exp,2022.1.1,Win32,142.9592566,,,,,,,,,,,,,,,,,,,,,,5.037037037,,,,,,Уровень фрустрации,Насколько напряженным и раздражающим было задание?,Низкий,Высокий,,,,,,mental_rotation,2,Q,,,,,,,,,,,,,,,,,,,,,,,,,,,,,,,,,,,,,,,,,,,,,,,,,,,,,,,,,,,,,,,,,,,,,,,,,,,,,,,,,,,,,,,,,,,,,,,,,,,,,,,,,,,,,,,,,,,,,,0,5,5,5,1,,,,,,,,,,,,,,,,,,,,,,,,,
,,,,,,,,,,,,,029SSDL,2022-07-16_07h45.19.402,entire_exp,2022.1.1,Win32,142.9592566,,,,,,,,,,,,,,,,,,,,,,,,,,,,,,,,,,,,,,,,,,,,,,,,,,,,,,,,,,,,,,,,,,,,,,,,,,,,,,,,,,,,,,,,,,,,,,,,,,,,,,,,,,,,,,,,,,,,,,,,,,,,,,,,,,,,,,,,,,,,,,,,,,,,,,,,,,,,,,,,,,0,0,0,0,1,,,,,,,,,,,,,,,,,,,,
,,,,,,,,,,,,,029SSDL,2022-07-16_07h45.19.402,entire_exp,2022.1.1,Win32,142.9592566,,,,,,,,,,,,,,,,,,,,,,,,,,,,,,,,,,,,,,,,,,,,,,,,,,,,,,,,,,,,0,4,4,1,1,0,1,0,0,0,0,0,0,0,,,,,,,,,,,,,,,,,,,,,,,,,,,,,,,,,,,,,,,,,,,,,,,,,,,,,,,,,,,,,,,,,,,,,,,,,,,,,,,,,,,,,,,,,,,,,,,,,,,,,,,,,,,,,,,,,
,,,,,,,,,,,,,029SSDL,2022-07-16_07h45.19.402,entire_exp,2022.1.1,Win32,142.9592566,,,,,,,,,,,,,,,,,,,,,,,,,,,,,,,,"[0.4,0]",right,images/base/15_b.png,images/combined/15_b_x_270_y_0_z_270.png,270,mental_rotation,3,T,,,,,,,,,,,,,,,,,,,,,,,,,,,,,,,,,,,,,,,,,,,,,,,,,,,,,,,,,,,,,,,,,,,,,,,,,,,,,,,,,,,,,,,,,,,,,,,,,,,,,,,,,,,270,,,,,,,,,,,,,,,,,,,,,right,1,7.2631,space,0.4209,0,0,0,0,1,,,,,,,,,,
,,,,,,,,,,,,,029SSDL,2022-07-16_07h45.19.402,entire_exp,2022.1.1,Win32,142.9592566,,,,,,,,,,,,,,,,,,,,,,,,,,,,,,,,"[0.4,0]",left,images/base/3_a.png,images/combined/3_b_x_90_y_0_z_90.png,90,mental_rotation,3,T,,,,,,,,,,,,,,,,,,,,,,,,,,,,,,,,,,,,,,,,,,,,,,,,,,,,,,,,,,,,,,,,,,,,,,,,,,,,,,,,,,,,,,,,,,,,,,,,,,,,,,,,,,,90,,,,,,,,,,,,,,,,,,,,,left,1,9.6612,space,0.2258,1,0,1,0,1,,,,,,,,,,
,,,,,,,,,,,,,029SSDL,2022-07-16_07h45.19.402,entire_exp,2022.1.1,Win32,142.9592566,,,,,,,,,,,,,,,,,,,,,,,,,,,,,,,,"[0.4,0]",left,images/base/12_b.png,images/combined/12_a_x_270_y_0_z_90.png,90,mental_rotation,3,T,,,,,,,,,,,,,,,,,,,,,,,,,,,,,,,,,,,,,,,,,,,,,,,,,,,,,,,,,,,,,,,,,,,,,,,,,,,,,,,,,,,,,,,,,,,,,,,,,,,,,,,,,,,270,,,,,,,,,,,,,,,,,,,,,right,0,16.0113,space,0.7123,2,0,2,0,1,,,,,,,,,,
,,,,,,,,,,,,,029SSDL,2022-07-16_07h45.19.402,entire_exp,2022.1.1,Win32,142.9592566,,,,,,,,,,,,,,,,,,,,,,,,,,,,,,,,"[-0.4,0]",right,images/base/7_a.png,images/combined/7_a_x_90_y_0_z_270.png,270,mental_rotation,3,T,,,,,,,,,,,,,,,,,,,,,,,,,,,,,,,,,,,,,,,,,,,,,,,,,,,,,,,,,,,,,,,,,,,,,,,,,,,,,,,,,,,,,,,,,,,,,,,,,,,,,,,,,,,90,,,,,,,,,,,,,,,,,,,,,right,1,4.2598,space,0.3641,3,0,3,0,1,,,,,,,,,,
,,,,,,,,,,,,,029SSDL,2022-07-16_07h45.19.402,entire_exp,2022.1.1,Win32,142.9592566,,,,,,,,,,,,,,,,,,,,,,,,,,,,,,,,"[0.4,0]",left,images/base/11_b.png,images/combined/11_a_x_90_y_0_z_90.png,90,mental_rotation,3,T,,,,,,,,,,,,,,,,,,,,,,,,,,,,,,,,,,,,,,,,,,,,,,,,,,,,,,,,,,,,,,,,,,,,,,,,,,,,,,,,,,,,,,,,,,,,,,,,,,,,,,,,,,,90,,,,,,,,,,,,,,,,,,,,,left,1,7.9157,space,0.1769,4,0,4,0,1,,,,,,,,,,
,,,,,,,,,,,,,029SSDL,2022-07-16_07h45.19.402,entire_exp,2022.1.1,Win32,142.9592566,,,,,,,,,,,,,,,,,,,,,,,,,,,,,,,,"[-0.4,0]",left,images/base/4_b.png,images/combined/4_a_x_90_y_0_z_90.png,90,mental_rotation,3,T,,,,,,,,,,,,,,,,,,,,,,,,,,,,,,,,,,,,,,,,,,,,,,,,,,,,,,,,,,,,,,,,,,,,,,,,,,,,,,,,,,,,,,,,,,,,,,,,,,,,,,,,,,,90,,,,,,,,,,,,,,,,,,,,,left,1,8.5533,space,0.2366,5,0,5,0,1,,,,,,,,,,
,,,,,,,,,,,,,029SSDL,2022-07-16_07h45.19.402,entire_exp,2022.1.1,Win32,142.9592566,,,,,,,,,,,,,,,,,,,,,,,,,,,,,,,,"[0.4,0]",left,images/base/1_a.png,images/combined/1_b_x_90_y_0_z_90.png,90,mental_rotation,3,T,,,,,,,,,,,,,,,,,,,,,,,,,,,,,,,,,,,,,,,,,,,,,,,,,,,,,,,,,,,,,,,,,,,,,,,,,,,,,,,,,,,,,,,,,,,,,,,,,,,,,,,,,,,90,,,,,,,,,,,,,,,,,,,,,left,1,14.2728,space,0.3794,6,0,6,0,1,,,,,,,,,,
,,,,,,,,,,,,,029SSDL,2022-07-16_07h45.19.402,entire_exp,2022.1.1,Win32,142.9592566,,,,,,,,,,,,,,,,,,,,,,,,,,,,,,,,"[-0.4,0]",right,images/base/16_a.png,images/combined/16_a_x_270_y_0_z_270.png,270,mental_rotation,3,T,,,,,,,,,,,,,,,,,,,,,,,,,,,,,,,,,,,,,,,,,,,,,,,,,,,,,,,,,,,,,,,,,,,,,,,,,,,,,,,,,,,,,,,,,,,,,,,,,,,,,,,,,,,270,,,,,,,,,,,,,,,,,,,,,right,1,17.3027,space,109.5868,7,0,7,0,1,,,,,,,,,,
,,,,,,,,,,,,,029SSDL,2022-07-16_07h45.19.402,entire_exp,2022.1.1,Win32,142.9592566,,,,,,,,,,,,,,,,,,,,,,,,,,,,,,,,"[0.4,0]",left,images/base/6_b.png,images/combined/6_a_x_270_y_0_z_270.png,270,mental_rotation,3,T,,,,,,,,,,,,,,,,,,,,,,,,,,,,,,,,,,,,,,,,,,,,,,,,,,,,,,,,,,,,,,,,,,,,,,,,,,,,,,,,,,,,,,,,,,,,,,,,,,,,,,,,,,,270,,,,,,,,,,,,,,,,,,,,,left,1,14.4205,space,0.3751,8,0,8,0,1,,,,,,,,,,
,,,,,,,,,,,,,029SSDL,2022-07-16_07h45.19.402,entire_exp,2022.1.1,Win32,142.9592566,,,,,,,,,,,,,,,,,,,,,,,,,,,,,,,,"[-0.4,0]",right,images/base/5_b.png,images/combined/5_b_x_270_y_0_z_270.png,270,mental_rotation,3,T,,,,,,,,,,,,,,,,,,,,,,,,,,,,,,,,,,,,,,,,,,,,,,,,,,,,,,,,,,,,,,,,,,,,,,,,,,,,,,,,,,,,,,,,,,,,,,,,,,,,,,,,,,,270,,,,,,,,,,,,,,,,,,,,,right,1,6.0354,space,0.7372,9,0,9,0,1,,,,,,,,,,
,,,,,,,,,,,,,029SSDL,2022-07-16_07h45.19.402,entire_exp,2022.1.1,Win32,142.9592566,,,,,,,,,,,,,,,,,,,,,,,,,,,,,,,,"[-0.4,0]",right,images/base/10_b.png,images/combined/10_b_x_90_y_0_z_270.png,270,mental_rotation,3,T,,,,,,,,,,,,,,,,,,,,,,,,,,,,,,,,,,,,,,,,,,,,,,,,,,,,,,,,,,,,,,,,,,,,,,,,,,,,,,,,,,,,,,,,,,,,,,,,,,,,,,,,,,,90,,,,,,,,,,,,,,,,,,,,,right,1,7.3973,space,0.3781,10,0,10,0,1,,,,,,,,,,
,,,,,,,,,,,,,029SSDL,2022-07-16_07h45.19.402,entire_exp,2022.1.1,Win32,142.9592566,,,,,,,,,,,,,,,,,,,,,,,,,,,,,,,,"[-0.4,0]",right,images/base/14_b.png,images/combined/14_b_x_270_y_0_z_270.png,270,mental_rotation,3,T,,,,,,,,,,,,,,,,,,,,,,,,,,,,,,,,,,,,,,,,,,,,,,,,,,,,,,,,,,,,,,,,,,,,,,,,,,,,,,,,,,,,,,,,,,,,,,,,,,,,,,,,,,,270,,,,,,,,,,,,,,,,,,,,,right,1,7.8801,space,0.5144,11,0,11,0,1,,,,,,,,,,
,,,,,,,,,,,,,029SSDL,2022-07-16_07h45.19.402,entire_exp,2022.1.1,Win32,142.9592566,,,,,,,,,,,,,,,,,,,,,,,,,,,,,,,,"[-0.4,0]",left,images/base/13_b.png,images/combined/13_a_x_90_y_0_z_270.png,270,mental_rotation,3,T,,,,,,,,,,,,,,,,,,,,,,,,,,,,,,,,,,,,,,,,,,,,,,,,,,,,,,,,,,,,,,,,,,,,,,,,,,,,,,,,,,,,,,,,,,,,,,,,,,,,,,,,,,,90,,,,,,,,,,,,,,,,,,,,,left,1,11.8091,space,0.3609,12,0,12,0,1,,,,,,,,,,
,,,,,,,,,,,,,029SSDL,2022-07-16_07h45.19.402,entire_exp,2022.1.1,Win32,142.9592566,,,,,,,,,,,,,,,,,,,,,,,,,,,,,,,,"[0.4,0]",right,images/base/8_a.png,images/combined/8_a_x_90_y_0_z_90.png,90,mental_rotation,3,T,,,,,,,,,,,,,,,,,,,,,,,,,,,,,,,,,,,,,,,,,,,,,,,,,,,,,,,,,,,,,,,,,,,,,,,,,,,,,,,,,,,,,,,,,,,,,,,,,,,,,,,,,,,90,,,,,,,,,,,,,,,,,,,,,left,0,19.6819,space,0.4085,13,0,13,0,1,,,,,,,,,,
,,,,,,,,,,,,,029SSDL,2022-07-16_07h45.19.402,entire_exp,2022.1.1,Win32,142.9592566,,,,,,,,,,,,,,,,,,,,,,,,,,,,,,,,"[0.4,0]",left,images/base/2_b.png,images/combined/2_a_x_90_y_0_z_270.png,270,mental_rotation,3,T,,,,,,,,,,,,,,,,,,,,,,,,,,,,,,,,,,,,,,,,,,,,,,,,,,,,,,,,,,,,,,,,,,,,,,,,,,,,,,,,,,,,,,,,,,,,,,,,,,,,,,,,,,,90,,,,,,,,,,,,,,,,,,,,,left,1,8.7732,space,0.2791,14,0,14,0,1,,,,,,,,,,
,,,,,,,,,,,,,029SSDL,2022-07-16_07h45.19.402,entire_exp,2022.1.1,Win32,142.9592566,,,,,,,,,,,,,,,,,,,,,,,,,,,,,,,,"[-0.4,0]",left,images/base/9_b.png,images/combined/9_a_x_270_y_0_z_90.png,90,mental_rotation,3,T,,,,,,,,,,,,,,,,,,,,,,,,,,,,,,,,,,,,,,,,,,,,,,,,,,,,,,,,,,,,,,,,,,,,,,,,,,,,,,,,,,,,,,,,,,,,,,,,,,,,,,,,,,,270,,,,,,,,,,,,,,,,,,,,,left,1,21.348,space,0.3715,15,0,15,0,1,,,,,,,,,,
,,,,,,,,,,,,,029SSDL,2022-07-16_07h45.19.402,entire_exp,2022.1.1,Win32,142.9592566,,,,,,,,,,,,,,,,,,,,,,12.94814837,,,,,,Умственная нагрузка,"Как много умственных усилий, как вам показалось на первый взгляд, требовалось для выполнения задания?",Низкая,Высокая,,,,,,mental_rotation,3,Q,,,,,,,,,,,,,,,,,,,,,,,,,,,,,,,,,,,,,,,,,,,,,,,,,,,,,,,,,,,,,,,,,,,,,,,,,,,,,,,,,,,,,,,,,,,,,,,,,,,,,,,,,,,,,,,,,,,,,,,,,,,,,,,,,,,,,,,,,,0,0,0,0,1,,,,,
,,,,,,,,,,,,,029SSDL,2022-07-16_07h45.19.402,entire_exp,2022.1.1,Win32,142.9592566,,,,,,,,,,,,,,,,,,,,,,1.851851852,,,,,,Физическая нагрузка,"Как много физических усилий, как вам показалось на первый взгляд, пришлось приложить для выполнения задания?",Низкая,Высокая,,,,,,mental_rotation,3,Q,,,,,,,,,,,,,,,,,,,,,,,,,,,,,,,,,,,,,,,,,,,,,,,,,,,,,,,,,,,,,,,,,,,,,,,,,,,,,,,,,,,,,,,,,,,,,,,,,,,,,,,,,,,,,,,,,,,,,,,,,,,,,,,,,,,,,,,,,,0,1,1,1,1,,,,,
,,,,,,,,,,,,,029SSDL,2022-07-16_07h45.19.402,entire_exp,2022.1.1,Win32,142.9592566,,,,,,,,,,,,,,,,,,,,,,1.851851852,,,,,,Давление времени,"Нужно было торопиться, чтобы выполнить задание, или можно было работать в своём темпе?",Слабое,Сильное,,,,,,mental_rotation,3,Q,,,,,,,,,,,,,,,,,,,,,,,,,,,,,,,,,,,,,,,,,,,,,,,,,,,,,,,,,,,,,,,,,,,,,,,,,,,,,,,,,,,,,,,,,,,,,,,,,,,,,,,,,,,,,,,,,,,,,,,,,,,,,,,,,,,,,,,,,,0,2,2,2,1,,,,,
,,,,,,,,,,,,,029SSDL,2022-07-16_07h45.19.402,entire_exp,2022.1.1,Win32,142.9592566,,,,,,,,,,,,,,,,,,,,,,12.08888866,,,,,,Успешность выполнения,"Как вы думаете, насколько успешно было выполнено задание?",Совсем не выполнено,Полностью выполнено,,,,,,mental_rotation,3,Q,,,,,,,,,,,,,,,,,,,,,,,,,,,,,,,,,,,,,,,,,,,,,,,,,,,,,,,,,,,,,,,,,,,,,,,,,,,,,,,,,,,,,,,,,,,,,,,,,,,,,,,,,,,,,,,,,,,,,,,,,,,,,,,,,,,,,,,,,,0,3,3,3,1,,,,,
,,,,,,,,,,,,,029SSDL,2022-07-16_07h45.19.402,entire_exp,2022.1.1,Win32,142.9592566,,,,,,,,,,,,,,,,,,,,,,7.022222448,,,,,,Усилия,Сколько усилий на самом деле вы приложили для выполнения задания?,Мало,Много,,,,,,mental_rotation,3,Q,,,,,,,,,,,,,,,,,,,,,,,,,,,,,,,,,,,,,,,,,,,,,,,,,,,,,,,,,,,,,,,,,,,,,,,,,,,,,,,,,,,,,,,,,,,,,,,,,,,,,,,,,,,,,,,,,,,,,,,,,,,,,,,,,,,,,,,,,,0,4,4,4,1,,,,,
,,,,,,,,,,,,,029SSDL,2022-07-16_07h45.19.402,entire_exp,2022.1.1,Win32,142.9592566,,,,,,,,,,,,,,,,,,,,,,4.148148148,,,,,,Уровень фрустрации,Насколько напряженным и раздражающим было задание?,Низкий,Высокий,,,,,,mental_rotation,3,Q,,,,,,,,,,,,,,,,,,,,,,,,,,,,,,,,,,,,,,,,,,,,,,,,,,,,,,,,,,,,,,,,,,,,,,,,,,,,,,,,,,,,,,,,,,,,,,,,,,,,,,,,,,,,,,,,,,,,,,,,,,,,,,,,,,,,,,,,,,0,5,5,5,1,,,,,
,,,,,,,,,,,,,029SSDL,2022-07-16_07h45.19.402,entire_exp,2022.1.1,Win32,142.9592566,,,,,,,,,,,,,,,,,,,,,,,,,,,,,,,,,,,,,,,,,,,,,,,,,,,,,,,,,,,,,,,,,,,,,,,,,,,,,,,,,,,,,,,,,,,,,,,,,,,,,,,,,,,,,,,,,,,,,,,,,,,,,,,,,,,,,,,,,,,,,,,,,,,,,,,,,,,,,,,,,,,,,,,,,,,,,,,,,,,,,,0,0,0,0,1
,,,,,,,,,,,,,029SSDL,2022-07-16_07h45.19.402,entire_exp,2022.1.1,Win32,142.9592566,,,,,,,,,,,,,,,,,,,,,,,,,,,,,,,,,,,,,,,,,,,,,,,,,,,,,,,,,,,,0,5,5,2,1,0,0,1,0,0,0,0,0,0,,,,,,,,,,,,,,,,,,,,,,,,,,,,,,,,,,,,,,,,,,,,,,,,,,,,,,,,,,,,,,,,,,,,,,,,,,,,,,,,,,,,,,,,,,,,,,,,,,,,,,,,,,,,,,,,,
