correctAns,base_pic,rotated_pic,key,is_correct,rt,task,level,trial,id
left,images/base/2_b.png,images/combined/2_a_x_0_y_0_z_315.png,right,0,2.324,MR,easy,1,uofo7FKPdo
right,images/base/15_a.png,images/combined/15_a_x_0_y_0_z_315.png,left,0,1.722,MR,easy,2,uofo7FKPdo
left,images/base/9_a.png,images/combined/9_b_x_0_y_0_z_315.png,right,0,0.924,MR,easy,3,uofo7FKPdo
right,images/base/4_b.png,images/combined/4_b_x_0_y_0_z_45.png,right,1,0.849,MR,easy,4,uofo7FKPdo
right,images/base/1_b.png,images/combined/1_b_x_0_y_0_z_45.png,right,1,1.515,MR,easy,5,uofo7FKPdo
left,images/base/12_b.png,images/combined/12_a_x_0_y_0_z_315.png,right,0,1.468,MR,easy,6,uofo7FKPdo
left,images/base/14_b.png,images/combined/14_a_x_0_y_0_z_45.png,right,0,1.505,MR,easy,7,uofo7FKPdo
right,images/base/5_a.png,images/combined/5_a_x_0_y_0_z_45.png,right,1,2.64,MR,easy,8,uofo7FKPdo
left,images/base/11_b.png,images/combined/11_a_x_0_y_0_z_315.png,right,0,20.805,MR,easy,9,uofo7FKPdo
left,images/base/3_a.png,images/combined/3_b_x_0_y_0_z_45.png,right,0,0.85,MR,easy,10,uofo7FKPdo
left,images/base/6_a.png,images/combined/6_b_x_0_y_0_z_315.png,left,1,1.19,MR,easy,11,uofo7FKPdo
left,images/base/16_a.png,images/combined/16_b_x_0_y_0_z_315.png,right,0,2.333,MR,easy,12,uofo7FKPdo
right,images/base/8_b.png,images/combined/8_b_x_0_y_0_z_45.png,right,1,0.757,MR,easy,13,uofo7FKPdo
left,images/base/10_a.png,images/combined/10_b_x_0_y_0_z_315.png,right,0,3.304,MR,easy,14,uofo7FKPdo
left,images/base/13_b.png,images/combined/13_a_x_0_y_0_z_315.png,right,0,1.107,MR,easy,15,uofo7FKPdo
left,images/base/7_b.png,images/combined/7_a_x_0_y_0_z_45.png,right,0,2.305,MR,easy,16,uofo7FKPdo
left,images/base/4_a.png,images/combined/4_b_x_315_y_0_z_90.png,right,0,2.195,MR,medium,1,uofo7FKPdo
left,images/base/11_b.png,images/combined/11_a_x_315_y_0_z_90.png,left,1,1.604,MR,medium,2,uofo7FKPdo
left,images/base/2_b.png,images/combined/2_a_x_45_y_0_z_90.png,right,0,4.018,MR,medium,3,uofo7FKPdo
right,images/base/13_a.png,images/combined/13_a_x_315_y_0_z_90.png,right,1,2.382,MR,medium,4,uofo7FKPdo
left,images/base/14_a.png,images/combined/14_b_x_45_y_0_z_90.png,left,1,1.399,MR,medium,5,uofo7FKPdo
left,images/base/12_a.png,images/combined/12_b_x_45_y_0_z_270.png,left,1,4.034,MR,medium,6,uofo7FKPdo
right,images/base/5_b.png,images/combined/5_b_x_315_y_0_z_90.png,right,1,1.808,MR,medium,7,uofo7FKPdo
right,images/base/8_b.png,images/combined/8_b_x_315_y_0_z_270.png,right,1,2.158,MR,medium,8,uofo7FKPdo
right,images/base/10_a.png,images/combined/10_a_x_315_y_0_z_90.png,right,1,2.189,MR,medium,9,uofo7FKPdo
right,images/base/15_b.png,images/combined/15_b_x_315_y_0_z_90.png,right,1,3.591,MR,medium,10,uofo7FKPdo
right,images/base/7_a.png,images/combined/7_a_x_45_y_0_z_90.png,right,1,13.617,MR,medium,11,uofo7FKPdo
right,images/base/16_b.png,images/combined/16_b_x_45_y_0_z_270.png,left,0,29.038,MR,medium,12,uofo7FKPdo
left,images/base/3_b.png,images/combined/3_a_x_45_y_0_z_270.png,right,0,1.135,MR,medium,13,uofo7FKPdo
left,images/base/6_a.png,images/combined/6_b_x_45_y_0_z_270.png,right,0,1.066,MR,medium,14,uofo7FKPdo
left,images/base/1_a.png,images/combined/1_b_x_315_y_0_z_270.png,right,0,1.285,MR,medium,15,uofo7FKPdo
left,images/base/9_b.png,images/combined/9_a_x_315_y_0_z_90.png,right,0,2.399,MR,medium,16,uofo7FKPdo
left,images/base/14_b.png,images/combined/14_a_x_270_y_0_z_90.png,right,0,2.632,MR,hard,1,uofo7FKPdo
right,images/base/13_b.png,images/combined/13_b_x_90_y_0_z_90.png,right,1,1.255,MR,hard,2,uofo7FKPdo
right,images/base/9_a.png,images/combined/9_a_x_90_y_0_z_270.png,right,1,1.199,MR,hard,3,uofo7FKPdo
right,images/base/10_a.png,images/combined/10_a_x_270_y_0_z_90.png,left,0,7.349,MR,hard,4,uofo7FKPdo
left,images/base/11_b.png,images/combined/11_a_x_270_y_0_z_90.png,right,0,2.587,MR,hard,5,uofo7FKPdo
left,images/base/5_b.png,images/combined/5_a_x_90_y_0_z_90.png,right,0,0.967,MR,hard,6,uofo7FKPdo
right,images/base/7_a.png,images/combined/7_a_x_270_y_0_z_90.png,right,1,1.319,MR,hard,7,uofo7FKPdo
left,images/base/16_a.png,images/combined/16_b_x_270_y_0_z_90.png,right,0,1.716,MR,hard,8,uofo7FKPdo
left,images/base/12_a.png,images/combined/12_b_x_270_y_0_z_90.png,right,0,1.166,MR,hard,9,uofo7FKPdo
left,images/base/15_a.png,images/combined/15_b_x_90_y_0_z_90.png,left,1,1.013,MR,hard,10,uofo7FKPdo
left,images/base/8_a.png,images/combined/8_b_x_270_y_0_z_270.png,left,1,1.801,MR,hard,11,uofo7FKPdo
left,images/base/6_b.png,images/combined/6_a_x_90_y_0_z_90.png,right,0,0.724,MR,hard,12,uofo7FKPdo
left,images/base/3_a.png,images/combined/3_b_x_270_y_0_z_90.png,left,1,0.778,MR,hard,13,uofo7FKPdo
left,images/base/1_a.png,images/combined/1_b_x_270_y_0_z_90.png,right,0,2.092,MR,hard,14,uofo7FKPdo
right,images/base/4_b.png,images/combined/4_b_x_270_y_0_z_270.png,right,1,1.019,MR,hard,15,uofo7FKPdo
left,images/base/2_b.png,images/combined/2_a_x_270_y_0_z_270.png,left,1,1.067,MR,hard,16,uofo7FKPdo
left,images/base/2_a.png,images/combined/2_b_x_0_y_0_z_45.png,left,1,4.611,MR,easy,1,VEZTZ89Pge
right,images/base/14_b.png,images/combined/14_b_x_0_y_0_z_45.png,left,0,3.183,MR,easy,2,VEZTZ89Pge
left,images/base/9_a.png,images/combined/9_b_x_0_y_0_z_315.png,left,1,6.972,MR,easy,3,VEZTZ89Pge
left,images/base/4_a.png,images/combined/4_b_x_0_y_0_z_315.png,left,1,2.816,MR,easy,4,VEZTZ89Pge
left,images/base/3_a.png,images/combined/3_b_x_0_y_0_z_45.png,left,1,5.7,MR,easy,5,VEZTZ89Pge
left,images/base/10_a.png,images/combined/10_b_x_0_y_0_z_45.png,left,1,7.996,MR,easy,6,VEZTZ89Pge
right,images/base/13_b.png,images/combined/13_b_x_0_y_0_z_315.png,right,1,3.971,MR,easy,7,VEZTZ89Pge
left,images/base/16_a.png,images/combined/16_b_x_0_y_0_z_315.png,left,1,10.151,MR,easy,8,VEZTZ89Pge
right,images/base/11_b.png,images/combined/11_b_x_0_y_0_z_315.png,right,1,7.4,MR,easy,9,VEZTZ89Pge
right,images/base/6_a.png,images/combined/6_a_x_0_y_0_z_45.png,right,1,4.25,MR,easy,10,VEZTZ89Pge
left,images/base/7_a.png,images/combined/7_b_x_0_y_0_z_315.png,left,1,2.532,MR,easy,11,VEZTZ89Pge
right,images/base/5_a.png,images/combined/5_a_x_0_y_0_z_45.png,right,1,3.433,MR,easy,12,VEZTZ89Pge
right,images/base/12_a.png,images/combined/12_a_x_0_y_0_z_45.png,right,1,3.084,MR,easy,13,VEZTZ89Pge
left,images/base/15_a.png,images/combined/15_b_x_0_y_0_z_45.png,left,1,9.799,MR,easy,14,VEZTZ89Pge
right,images/base/1_a.png,images/combined/1_a_x_0_y_0_z_315.png,left,0,4.485,MR,easy,15,VEZTZ89Pge
left,images/base/8_b.png,images/combined/8_a_x_0_y_0_z_45.png,left,1,6.033,MR,easy,16,VEZTZ89Pge
right,images/base/12_a.png,images/combined/12_a_x_45_y_0_z_90.png,right,1,1.85,MR,medium,1,VEZTZ89Pge
left,images/base/13_b.png,images/combined/13_a_x_315_y_0_z_90.png,right,0,4.041,MR,medium,2,VEZTZ89Pge
right,images/base/3_b.png,images/combined/3_b_x_45_y_0_z_90.png,left,0,7.285,MR,medium,3,VEZTZ89Pge
right,images/base/2_a.png,images/combined/2_a_x_45_y_0_z_90.png,right,1,6.233,MR,medium,4,VEZTZ89Pge
right,images/base/5_b.png,images/combined/5_b_x_315_y_0_z_90.png,right,1,11.134,MR,medium,5,VEZTZ89Pge
right,images/base/11_a.png,images/combined/11_a_x_45_y_0_z_270.png,left,0,4.553,MR,medium,6,VEZTZ89Pge
left,images/base/14_b.png,images/combined/14_a_x_45_y_0_z_90.png,left,1,9.368,MR,medium,7,VEZTZ89Pge
left,images/base/7_a.png,images/combined/7_b_x_45_y_0_z_90.png,left,1,7.703,MR,medium,8,VEZTZ89Pge
right,images/base/10_a.png,images/combined/10_a_x_45_y_0_z_270.png,left,0,9.077,MR,medium,9,VEZTZ89Pge
right,images/base/16_b.png,images/combined/16_b_x_45_y_0_z_90.png,left,0,6.017,MR,medium,10,VEZTZ89Pge
right,images/base/6_b.png,images/combined/6_b_x_45_y_0_z_90.png,right,1,11.802,MR,medium,11,VEZTZ89Pge
left,images/base/8_a.png,images/combined/8_b_x_315_y_0_z_270.png,left,1,7.571,MR,medium,12,VEZTZ89Pge
right,images/base/15_b.png,images/combined/15_b_x_315_y_0_z_90.png,right,1,6.634,MR,medium,13,VEZTZ89Pge
left,images/base/4_a.png,images/combined/4_b_x_315_y_0_z_270.png,left,1,7.908,MR,medium,14,VEZTZ89Pge
left,images/base/1_a.png,images/combined/1_b_x_315_y_0_z_90.png,right,0,9.233,MR,medium,15,VEZTZ89Pge
right,images/base/9_b.png,images/combined/9_b_x_315_y_0_z_270.png,right,1,7.286,MR,medium,16,VEZTZ89Pge
left,images/base/14_a.png,images/combined/14_b_x_90_y_0_z_270.png,left,1,11.028,MR,hard,1,VEZTZ89Pge
right,images/base/6_a.png,images/combined/6_a_x_90_y_0_z_270.png,left,0,5.383,MR,hard,2,VEZTZ89Pge
right,images/base/2_b.png,images/combined/2_b_x_90_y_0_z_270.png,right,1,7.151,MR,hard,3,VEZTZ89Pge
right,images/base/4_b.png,images/combined/4_b_x_270_y_0_z_90.png,right,1,6.958,MR,hard,4,VEZTZ89Pge
right,images/base/11_a.png,images/combined/11_a_x_270_y_0_z_90.png,right,1,4.154,MR,hard,5,VEZTZ89Pge
right,images/base/13_a.png,images/combined/13_a_x_90_y_0_z_270.png,left,0,5.749,MR,hard,6,VEZTZ89Pge
right,images/base/3_a.png,images/combined/3_a_x_90_y_0_z_90.png,left,0,8.176,MR,hard,7,VEZTZ89Pge
left,images/base/1_b.png,images/combined/1_a_x_270_y_0_z_90.png,left,1,3.8,MR,hard,8,VEZTZ89Pge
left,images/base/7_a.png,images/combined/7_b_x_270_y_0_z_270.png,left,1,7.309,MR,hard,9,VEZTZ89Pge
left,images/base/5_b.png,images/combined/5_a_x_90_y_0_z_270.png,left,1,4.735,MR,hard,10,VEZTZ89Pge
right,images/base/9_b.png,images/combined/9_b_x_270_y_0_z_90.png,left,0,3.517,MR,hard,11,VEZTZ89Pge
right,images/base/12_b.png,images/combined/12_b_x_270_y_0_z_270.png,right,1,5.64,MR,hard,12,VEZTZ89Pge
left,images/base/16_a.png,images/combined/16_b_x_270_y_0_z_90.png,left,1,5.133,MR,hard,13,VEZTZ89Pge
right,images/base/15_b.png,images/combined/15_b_x_270_y_0_z_270.png,left,0,5.816,MR,hard,14,VEZTZ89Pge
left,images/base/8_b.png,images/combined/8_a_x_90_y_0_z_90.png,left,1,4.823,MR,hard,15,VEZTZ89Pge
right,images/base/10_b.png,images/combined/10_b_x_90_y_0_z_90.png,right,1,2.951,MR,hard,16,VEZTZ89Pge
left,images/base/16_b.png,images/combined/16_a_x_0_y_0_z_315.png,left,1,8.0236,MR,easy,1,HF94YUUt2C
left,images/base/12_a.png,images/combined/12_b_x_0_y_0_z_315.png,left,1,4.8343,MR,easy,2,HF94YUUt2C
left,images/base/4_b.png,images/combined/4_a_x_0_y_0_z_45.png,left,1,4.7297,MR,easy,3,HF94YUUt2C
right,images/base/2_b.png,images/combined/2_b_x_0_y_0_z_45.png,right,1,2.5613,MR,easy,4,HF94YUUt2C
right,images/base/1_a.png,images/combined/1_a_x_0_y_0_z_315.png,right,1,2.7031,MR,easy,5,HF94YUUt2C
right,images/base/13_a.png,images/combined/13_a_x_0_y_0_z_315.png,right,1,3.4287,MR,easy,6,HF94YUUt2C
right,images/base/7_b.png,images/combined/7_b_x_0_y_0_z_45.png,right,1,3.034,MR,easy,7,HF94YUUt2C
left,images/base/8_b.png,images/combined/8_a_x_0_y_0_z_45.png,left,1,2.9424,MR,easy,8,HF94YUUt2C
right,images/base/6_a.png,images/combined/6_a_x_0_y_0_z_315.png,right,1,4.5931,MR,easy,9,HF94YUUt2C
left,images/base/15_a.png,images/combined/15_b_x_0_y_0_z_45.png,left,1,2.4961,MR,easy,10,HF94YUUt2C
right,images/base/3_b.png,images/combined/3_b_x_0_y_0_z_315.png,right,1,2.2922,MR,easy,11,HF94YUUt2C
right,images/base/11_b.png,images/combined/11_b_x_0_y_0_z_45.png,right,1,2.4375,MR,easy,12,HF94YUUt2C
right,images/base/9_b.png,images/combined/9_b_x_0_y_0_z_315.png,right,1,3.1806,MR,easy,13,HF94YUUt2C
left,images/base/5_b.png,images/combined/5_a_x_0_y_0_z_315.png,left,1,1.4381,MR,easy,14,HF94YUUt2C
right,images/base/10_a.png,images/combined/10_a_x_0_y_0_z_45.png,right,1,4.9588,MR,easy,15,HF94YUUt2C
left,images/base/14_a.png,images/combined/14_b_x_0_y_0_z_315.png,left,1,1.4183,MR,easy,16,HF94YUUt2C
left,images/base/13_b.png,images/combined/13_a_x_315_y_0_z_270.png,left,1,6.7071,MR,medium,1,HF94YUUt2C
left,images/base/16_b.png,images/combined/16_a_x_315_y_0_z_270.png,right,0,9.297,MR,medium,2,HF94YUUt2C
left,images/base/10_a.png,images/combined/10_b_x_45_y_0_z_270.png,left,1,18.3674,MR,medium,3,HF94YUUt2C
left,images/base/6_b.png,images/combined/6_a_x_315_y_0_z_270.png,right,0,13.1381,MR,medium,4,HF94YUUt2C
left,images/base/12_b.png,images/combined/12_a_x_315_y_0_z_270.png,right,0,17.0804,MR,medium,5,HF94YUUt2C
right,images/base/3_a.png,images/combined/3_a_x_315_y_0_z_90.png,left,0,13.8733,MR,medium,6,HF94YUUt2C
right,images/base/8_a.png,images/combined/8_a_x_45_y_0_z_270.png,right,1,11.2487,MR,medium,7,HF94YUUt2C
left,images/base/5_a.png,images/combined/5_b_x_315_y_0_z_270.png,left,1,12.5161,MR,medium,8,HF94YUUt2C
right,images/base/1_b.png,images/combined/1_b_x_45_y_0_z_270.png,right,1,13.0695,MR,medium,9,HF94YUUt2C
right,images/base/2_b.png,images/combined/2_b_x_315_y_0_z_90.png,right,1,14.6253,MR,medium,10,HF94YUUt2C
right,images/base/11_b.png,images/combined/11_b_x_45_y_0_z_90.png,left,0,8.1799,MR,medium,11,HF94YUUt2C
left,images/base/4_a.png,images/combined/4_b_x_315_y_0_z_90.png,right,0,6.3386,MR,medium,12,HF94YUUt2C
left,images/base/7_a.png,images/combined/7_b_x_315_y_0_z_270.png,left,1,8.5333,MR,medium,13,HF94YUUt2C
left,images/base/9_b.png,images/combined/9_a_x_45_y_0_z_90.png,left,1,17.9332,MR,medium,14,HF94YUUt2C
left,images/base/14_b.png,images/combined/14_a_x_45_y_0_z_270.png,left,1,10.6698,MR,medium,15,HF94YUUt2C
left,images/base/15_b.png,images/combined/15_a_x_315_y_0_z_270.png,right,0,15.36,MR,medium,16,HF94YUUt2C
left,images/base/11_a.png,images/combined/11_b_x_90_y_0_z_270.png,left,1,29.9689,MR,hard,1,HF94YUUt2C
left,images/base/3_b.png,images/combined/3_a_x_90_y_0_z_270.png,right,0,13.6973,MR,hard,2,HF94YUUt2C
left,images/base/12_b.png,images/combined/12_a_x_270_y_0_z_90.png,left,1,16.8394,MR,hard,3,HF94YUUt2C
left,images/base/15_a.png,images/combined/15_b_x_270_y_0_z_270.png,right,0,22.756,MR,hard,4,HF94YUUt2C
left,images/base/9_a.png,images/combined/9_b_x_270_y_0_z_90.png,left,1,32.6356,MR,hard,5,HF94YUUt2C
right,images/base/8_a.png,images/combined/8_a_x_270_y_0_z_270.png,right,1,41.3306,MR,hard,6,HF94YUUt2C
right,images/base/7_b.png,images/combined/7_b_x_270_y_0_z_90.png,left,0,18.412,MR,hard,7,HF94YUUt2C
left,images/base/4_a.png,images/combined/4_b_x_90_y_0_z_270.png,left,1,9.4746,MR,hard,8,HF94YUUt2C
left,images/base/14_b.png,images/combined/14_a_x_270_y_0_z_270.png,left,1,24.8275,MR,hard,9,HF94YUUt2C
left,images/base/10_a.png,images/combined/10_b_x_90_y_0_z_90.png,left,1,21.0979,MR,hard,10,HF94YUUt2C
right,images/base/1_b.png,images/combined/1_b_x_270_y_0_z_270.png,right,1,25.4764,MR,hard,11,HF94YUUt2C
right,images/base/6_a.png,images/combined/6_a_x_90_y_0_z_270.png,left,0,8.7966,MR,hard,12,HF94YUUt2C
left,images/base/2_a.png,images/combined/2_b_x_270_y_0_z_90.png,left,1,7.499,MR,hard,13,HF94YUUt2C
right,images/base/13_b.png,images/combined/13_b_x_90_y_0_z_90.png,right,1,6.1112,MR,hard,14,HF94YUUt2C
left,images/base/5_a.png,images/combined/5_b_x_90_y_0_z_270.png,right,0,18.6739,MR,hard,15,HF94YUUt2C
left,images/base/16_b.png,images/combined/16_a_x_270_y_0_z_90.png,left,1,17.7977,MR,hard,16,HF94YUUt2C
left,images/base/14_a.png,images/combined/14_b_x_0_y_0_z_45.png,left,1,4.0205,MR,easy,1,z93bJWn4hw
left,images/base/15_a.png,images/combined/15_b_x_0_y_0_z_315.png,left,1,9.7853,MR,easy,2,z93bJWn4hw
left,images/base/4_b.png,images/combined/4_a_x_0_y_0_z_315.png,left,1,4.456,MR,easy,3,z93bJWn4hw
left,images/base/1_b.png,images/combined/1_a_x_0_y_0_z_45.png,left,1,16.5136,MR,easy,4,z93bJWn4hw
left,images/base/3_a.png,images/combined/3_b_x_0_y_0_z_45.png,left,1,4.933,MR,easy,5,z93bJWn4hw
left,images/base/9_b.png,images/combined/9_a_x_0_y_0_z_45.png,left,1,32.0422,MR,easy,6,z93bJWn4hw
left,images/base/8_b.png,images/combined/8_a_x_0_y_0_z_315.png,left,1,2.6833,MR,easy,7,z93bJWn4hw
right,images/base/7_b.png,images/combined/7_b_x_0_y_0_z_45.png,right,1,2.6835,MR,easy,8,z93bJWn4hw
right,images/base/12_b.png,images/combined/12_b_x_0_y_0_z_315.png,right,1,6.1554,MR,easy,9,z93bJWn4hw
right,images/base/16_b.png,images/combined/16_b_x_0_y_0_z_45.png,right,1,4.4204,MR,easy,10,z93bJWn4hw
right,images/base/2_b.png,images/combined/2_b_x_0_y_0_z_45.png,right,1,3.1012,MR,easy,11,z93bJWn4hw
right,images/base/5_b.png,images/combined/5_b_x_0_y_0_z_315.png,right,1,2.6547,MR,easy,12,z93bJWn4hw
right,images/base/13_a.png,images/combined/13_a_x_0_y_0_z_315.png,right,1,1.7949,MR,easy,13,z93bJWn4hw
left,images/base/11_b.png,images/combined/11_a_x_0_y_0_z_45.png,left,1,36.5581,MR,easy,14,z93bJWn4hw
right,images/base/6_a.png,images/combined/6_a_x_0_y_0_z_315.png,right,1,2.3959,MR,easy,15,z93bJWn4hw
right,images/base/10_b.png,images/combined/10_b_x_0_y_0_z_45.png,right,1,1.618,MR,easy,16,z93bJWn4hw
left,images/base/5_a.png,images/combined/5_b_x_45_y_0_z_90.png,left,1,4.407,MR,medium,1,z93bJWn4hw
right,images/base/13_a.png,images/combined/13_a_x_45_y_0_z_270.png,right,1,5.4616,MR,medium,2,z93bJWn4hw
right,images/base/6_b.png,images/combined/6_b_x_45_y_0_z_270.png,right,1,7.5295,MR,medium,3,z93bJWn4hw
right,images/base/11_a.png,images/combined/11_a_x_45_y_0_z_90.png,right,1,3.6049,MR,medium,4,z93bJWn4hw
left,images/base/7_b.png,images/combined/7_a_x_45_y_0_z_270.png,left,1,4.0499,MR,medium,5,z93bJWn4hw
right,images/base/4_a.png,images/combined/4_a_x_45_y_0_z_270.png,right,1,1.7703,MR,medium,6,z93bJWn4hw
right,images/base/1_a.png,images/combined/1_a_x_315_y_0_z_270.png,right,1,6.0162,MR,medium,7,z93bJWn4hw
left,images/base/3_b.png,images/combined/3_a_x_45_y_0_z_270.png,left,1,4.7589,MR,medium,8,z93bJWn4hw
right,images/base/14_b.png,images/combined/14_b_x_45_y_0_z_90.png,right,1,6.5623,MR,medium,9,z93bJWn4hw
left,images/base/16_b.png,images/combined/16_a_x_45_y_0_z_270.png,left,1,7.7639,MR,medium,10,z93bJWn4hw
right,images/base/9_a.png,images/combined/9_a_x_315_y_0_z_90.png,right,1,6.3117,MR,medium,11,z93bJWn4hw
right,images/base/8_a.png,images/combined/8_a_x_315_y_0_z_270.png,right,1,7.7784,MR,medium,12,z93bJWn4hw
right,images/base/10_b.png,images/combined/10_b_x_315_y_0_z_270.png,right,1,3.0249,MR,medium,13,z93bJWn4hw
right,images/base/15_a.png,images/combined/15_a_x_45_y_0_z_90.png,right,1,6.2991,MR,medium,14,z93bJWn4hw
left,images/base/2_a.png,images/combined/2_b_x_315_y_0_z_90.png,left,1,4.7463,MR,medium,15,z93bJWn4hw
right,images/base/12_b.png,images/combined/12_b_x_45_y_0_z_90.png,right,1,2.5998,MR,medium,16,z93bJWn4hw
left,images/base/3_a.png,images/combined/3_b_x_270_y_0_z_90.png,left,1,13.6409,MR,hard,1,z93bJWn4hw
left,images/base/4_b.png,images/combined/4_a_x_90_y_0_z_270.png,left,1,5.5299,MR,hard,2,z93bJWn4hw
left,images/base/13_b.png,images/combined/13_a_x_270_y_0_z_90.png,left,1,6.53,MR,hard,3,z93bJWn4hw
left,images/base/1_a.png,images/combined/1_b_x_90_y_0_z_270.png,left,1,15.3447,MR,hard,4,z93bJWn4hw
right,images/base/11_b.png,images/combined/11_b_x_90_y_0_z_90.png,right,1,25.8422,MR,hard,5,z93bJWn4hw
left,images/base/10_b.png,images/combined/10_a_x_90_y_0_z_90.png,left,1,13.8273,MR,hard,6,z93bJWn4hw
right,images/base/8_a.png,images/combined/8_a_x_270_y_0_z_90.png,right,1,4.3969,MR,hard,7,z93bJWn4hw
left,images/base/15_a.png,images/combined/15_b_x_90_y_0_z_270.png,left,1,19.424,MR,hard,8,z93bJWn4hw
left,images/base/7_a.png,images/combined/7_b_x_270_y_0_z_90.png,left,1,10.7775,MR,hard,9,z93bJWn4hw
left,images/base/12_a.png,images/combined/12_b_x_90_y_0_z_270.png,left,1,10.5115,MR,hard,10,z93bJWn4hw
left,images/base/9_b.png,images/combined/9_a_x_270_y_0_z_270.png,right,0,8.7896,MR,hard,11,z93bJWn4hw
right,images/base/2_b.png,images/combined/2_b_x_270_y_0_z_90.png,right,1,4.0677,MR,hard,12,z93bJWn4hw
left,images/base/5_a.png,images/combined/5_b_x_90_y_0_z_270.png,left,1,19.9192,MR,hard,13,z93bJWn4hw
right,images/base/14_a.png,images/combined/14_a_x_270_y_0_z_90.png,right,1,5.3299,MR,hard,14,z93bJWn4hw
right,images/base/16_a.png,images/combined/16_a_x_270_y_0_z_270.png,right,1,7.8991,MR,hard,15,z93bJWn4hw
right,images/base/6_a.png,images/combined/6_a_x_270_y_0_z_90.png,right,1,3.5985,MR,hard,16,z93bJWn4hw
left,images/base/12_a.png,images/combined/12_b_x_0_y_0_z_315.png,left,1,12.1829,MR,easy,1,PsevAJnzJ0
right,images/base/5_b.png,images/combined/5_b_x_0_y_0_z_45.png,right,1,3.345,MR,easy,2,PsevAJnzJ0
left,images/base/13_a.png,images/combined/13_b_x_0_y_0_z_315.png,left,1,6.271,MR,easy,3,PsevAJnzJ0
left,images/base/2_a.png,images/combined/2_b_x_0_y_0_z_315.png,left,1,15.7618,MR,easy,4,PsevAJnzJ0
left,images/base/15_b.png,images/combined/15_a_x_0_y_0_z_45.png,right,0,3.1093,MR,easy,5,PsevAJnzJ0
right,images/base/4_b.png,images/combined/4_b_x_0_y_0_z_45.png,right,1,5.277,MR,easy,6,PsevAJnzJ0
right,images/base/9_a.png,images/combined/9_a_x_0_y_0_z_45.png,right,1,2.9431,MR,easy,7,PsevAJnzJ0
left,images/base/1_a.png,images/combined/1_b_x_0_y_0_z_315.png,left,1,1.3136,MR,easy,8,PsevAJnzJ0
right,images/base/14_b.png,images/combined/14_b_x_0_y_0_z_315.png,right,1,2.5725,MR,easy,9,PsevAJnzJ0
left,images/base/10_a.png,images/combined/10_b_x_0_y_0_z_315.png,left,1,6.6224,MR,easy,10,PsevAJnzJ0
left,images/base/11_b.png,images/combined/11_a_x_0_y_0_z_45.png,left,1,11.9913,MR,easy,11,PsevAJnzJ0
right,images/base/6_b.png,images/combined/6_b_x_0_y_0_z_45.png,right,1,3.2082,MR,easy,12,PsevAJnzJ0
right,images/base/7_b.png,images/combined/7_b_x_0_y_0_z_315.png,right,1,8.23,MR,easy,13,PsevAJnzJ0
left,images/base/8_a.png,images/combined/8_b_x_0_y_0_z_45.png,left,1,2.7976,MR,easy,14,PsevAJnzJ0
left,images/base/3_a.png,images/combined/3_b_x_0_y_0_z_315.png,left,1,1.6727,MR,easy,15,PsevAJnzJ0
left,images/base/16_a.png,images/combined/16_b_x_0_y_0_z_315.png,left,1,11.6789,MR,easy,16,PsevAJnzJ0
left,images/base/4_a.png,images/combined/4_b_x_45_y_0_z_270.png,right,0,3.5535,MR,medium,1,PsevAJnzJ0
left,images/base/3_a.png,images/combined/3_b_x_45_y_0_z_270.png,left,1,5.6366,MR,medium,2,PsevAJnzJ0
right,images/base/1_a.png,images/combined/1_a_x_315_y_0_z_270.png,right,1,3.7912,MR,medium,3,PsevAJnzJ0
right,images/base/8_b.png,images/combined/8_b_x_45_y_0_z_270.png,left,0,11.0009,MR,medium,4,PsevAJnzJ0
left,images/base/10_a.png,images/combined/10_b_x_45_y_0_z_90.png,right,0,3.0634,MR,medium,5,PsevAJnzJ0
left,images/base/13_a.png,images/combined/13_b_x_45_y_0_z_90.png,left,1,5.0985,MR,medium,6,PsevAJnzJ0
right,images/base/16_a.png,images/combined/16_a_x_315_y_0_z_90.png,right,1,6.1821,MR,medium,7,PsevAJnzJ0
left,images/base/12_a.png,images/combined/12_b_x_315_y_0_z_90.png,right,0,7.341,MR,medium,8,PsevAJnzJ0
left,images/base/5_a.png,images/combined/5_b_x_45_y_0_z_270.png,right,0,20.3224,MR,medium,9,PsevAJnzJ0
right,images/base/11_a.png,images/combined/11_a_x_315_y_0_z_270.png,left,0,5.9564,MR,medium,10,PsevAJnzJ0
left,images/base/15_b.png,images/combined/15_a_x_315_y_0_z_270.png,left,1,34.6784,MR,medium,11,PsevAJnzJ0
right,images/base/6_b.png,images/combined/6_b_x_45_y_0_z_270.png,right,1,5.9294,MR,medium,12,PsevAJnzJ0
right,images/base/2_a.png,images/combined/2_a_x_315_y_0_z_90.png,left,0,5.9762,MR,medium,13,PsevAJnzJ0
right,images/base/14_b.png,images/combined/14_b_x_45_y_0_z_90.png,right,1,7.304,MR,medium,14,PsevAJnzJ0
right,images/base/7_a.png,images/combined/7_a_x_315_y_0_z_90.png,left,0,4.2067,MR,medium,15,PsevAJnzJ0
right,images/base/9_a.png,images/combined/9_a_x_315_y_0_z_90.png,right,1,5.8976,MR,medium,16,PsevAJnzJ0
right,images/base/10_b.png,images/combined/10_b_x_90_y_0_z_90.png,right,1,12.1778,MR,hard,1,PsevAJnzJ0
left,images/base/9_a.png,images/combined/9_b_x_90_y_0_z_270.png,left,1,20.5067,MR,hard,2,PsevAJnzJ0
right,images/base/6_b.png,images/combined/6_b_x_270_y_0_z_270.png,right,1,1.3351,MR,hard,3,PsevAJnzJ0
right,images/base/1_b.png,images/combined/1_b_x_90_y_0_z_270.png,right,1,1.7031,MR,hard,4,PsevAJnzJ0
left,images/base/13_a.png,images/combined/13_b_x_90_y_0_z_270.png,right,0,1.7545,MR,hard,5,PsevAJnzJ0
right,images/base/12_a.png,images/combined/12_a_x_90_y_0_z_270.png,right,1,3.4102,MR,hard,6,PsevAJnzJ0
right,images/base/14_b.png,images/combined/14_b_x_90_y_0_z_270.png,right,1,4.4527,MR,hard,7,PsevAJnzJ0
left,images/base/16_b.png,images/combined/16_a_x_270_y_0_z_270.png,left,1,7.8819,MR,hard,8,PsevAJnzJ0
left,images/base/2_a.png,images/combined/2_b_x_90_y_0_z_270.png,left,1,12.163,MR,hard,9,PsevAJnzJ0
left,images/base/7_a.png,images/combined/7_b_x_270_y_0_z_270.png,left,1,10.2956,MR,hard,10,PsevAJnzJ0
right,images/base/11_b.png,images/combined/11_b_x_270_y_0_z_90.png,right,1,2.2534,MR,hard,11,PsevAJnzJ0
left,images/base/5_b.png,images/combined/5_a_x_90_y_0_z_270.png,right,0,10.7231,MR,hard,12,PsevAJnzJ0
left,images/base/8_a.png,images/combined/8_b_x_270_y_0_z_270.png,right,0,4.5045,MR,hard,13,PsevAJnzJ0
left,images/base/3_b.png,images/combined/3_a_x_90_y_0_z_270.png,left,1,3.4932,MR,hard,14,PsevAJnzJ0
right,images/base/15_a.png,images/combined/15_a_x_270_y_0_z_90.png,right,1,2.9052,MR,hard,15,PsevAJnzJ0
left,images/base/4_a.png,images/combined/4_b_x_90_y_0_z_90.png,right,0,0.8923,MR,hard,16,PsevAJnzJ0
right,images/base/7_a.png,images/combined/7_a_x_0_y_0_z_315.png,right,1,4.698,MR,easy,1,Piksbkqbn1
left,images/base/3_b.png,images/combined/3_a_x_0_y_0_z_315.png,left,1,7.157,MR,easy,2,Piksbkqbn1
right,images/base/15_b.png,images/combined/15_b_x_0_y_0_z_45.png,right,1,2.5,MR,easy,3,Piksbkqbn1
right,images/base/14_a.png,images/combined/14_a_x_0_y_0_z_315.png,right,1,4.672,MR,easy,4,Piksbkqbn1
right,images/base/4_a.png,images/combined/4_a_x_0_y_0_z_45.png,right,1,2.937,MR,easy,5,Piksbkqbn1
left,images/base/1_a.png,images/combined/1_b_x_0_y_0_z_315.png,left,1,2.104,MR,easy,6,Piksbkqbn1
left,images/base/6_b.png,images/combined/6_a_x_0_y_0_z_45.png,left,1,10.765,MR,easy,7,Piksbkqbn1
left,images/base/2_b.png,images/combined/2_a_x_0_y_0_z_315.png,left,1,2.003,MR,easy,8,Piksbkqbn1
left,images/base/11_b.png,images/combined/11_a_x_0_y_0_z_315.png,left,1,3.719,MR,easy,9,Piksbkqbn1
left,images/base/10_b.png,images/combined/10_a_x_0_y_0_z_315.png,left,1,5.254,MR,easy,10,Piksbkqbn1
left,images/base/5_a.png,images/combined/5_b_x_0_y_0_z_315.png,left,1,1.854,MR,easy,11,Piksbkqbn1
left,images/base/16_b.png,images/combined/16_a_x_0_y_0_z_45.png,left,1,8.319,MR,easy,12,Piksbkqbn1
left,images/base/8_a.png,images/combined/8_b_x_0_y_0_z_45.png,left,1,9.791,MR,easy,13,Piksbkqbn1
left,images/base/12_a.png,images/combined/12_b_x_0_y_0_z_315.png,left,1,1.918,MR,easy,14,Piksbkqbn1
right,images/base/13_a.png,images/combined/13_a_x_0_y_0_z_45.png,right,1,5.068,MR,easy,15,Piksbkqbn1
left,images/base/9_a.png,images/combined/9_b_x_0_y_0_z_315.png,left,1,1.72,MR,easy,16,Piksbkqbn1
right,images/base/1_b.png,images/combined/1_b_x_45_y_0_z_270.png,right,1,9.546,MR,medium,1,Piksbkqbn1
left,images/base/8_a.png,images/combined/8_b_x_315_y_0_z_90.png,left,1,10.189,MR,medium,2,Piksbkqbn1
right,images/base/2_b.png,images/combined/2_b_x_45_y_0_z_90.png,right,1,5.418,MR,medium,3,Piksbkqbn1
left,images/base/5_a.png,images/combined/5_b_x_45_y_0_z_90.png,left,1,5.199,MR,medium,4,Piksbkqbn1
left,images/base/3_a.png,images/combined/3_b_x_45_y_0_z_270.png,left,1,4.387,MR,medium,5,Piksbkqbn1
right,images/base/11_a.png,images/combined/11_a_x_315_y_0_z_270.png,left,0,4.783,MR,medium,6,Piksbkqbn1
right,images/base/12_a.png,images/combined/12_a_x_45_y_0_z_270.png,left,0,3.4,MR,medium,7,Piksbkqbn1
right,images/base/7_a.png,images/combined/7_a_x_45_y_0_z_90.png,right,1,7.536,MR,medium,8,Piksbkqbn1
left,images/base/15_b.png,images/combined/15_a_x_315_y_0_z_270.png,left,1,7.7,MR,medium,9,Piksbkqbn1
right,images/base/14_a.png,images/combined/14_a_x_315_y_0_z_270.png,right,1,11.184,MR,medium,10,Piksbkqbn1
left,images/base/6_b.png,images/combined/6_a_x_45_y_0_z_90.png,left,1,6.192,MR,medium,11,Piksbkqbn1
left,images/base/9_b.png,images/combined/9_a_x_45_y_0_z_270.png,left,1,6.585,MR,medium,12,Piksbkqbn1
left,images/base/4_a.png,images/combined/4_b_x_45_y_0_z_90.png,left,1,8.258,MR,medium,13,Piksbkqbn1
left,images/base/16_b.png,images/combined/16_a_x_315_y_0_z_90.png,left,1,12.519,MR,medium,14,Piksbkqbn1
left,images/base/10_b.png,images/combined/10_a_x_315_y_0_z_90.png,left,1,9.552,MR,medium,15,Piksbkqbn1
left,images/base/13_a.png,images/combined/13_b_x_45_y_0_z_270.png,left,1,7.523,MR,medium,16,Piksbkqbn1
right,images/base/16_a.png,images/combined/16_a_x_90_y_0_z_90.png,right,1,9.347,MR,hard,1,Piksbkqbn1
left,images/base/8_a.png,images/combined/8_b_x_270_y_0_z_270.png,right,0,11.611,MR,hard,2,Piksbkqbn1
right,images/base/3_b.png,images/combined/3_b_x_90_y_0_z_90.png,right,1,10.318,MR,hard,3,Piksbkqbn1
left,images/base/5_b.png,images/combined/5_a_x_270_y_0_z_270.png,left,1,4.968,MR,hard,4,Piksbkqbn1
right,images/base/12_b.png,images/combined/12_b_x_270_y_0_z_90.png,right,1,11.975,MR,hard,5,Piksbkqbn1
left,images/base/4_b.png,images/combined/4_a_x_90_y_0_z_90.png,left,1,6.259,MR,hard,6,Piksbkqbn1
right,images/base/14_b.png,images/combined/14_b_x_270_y_0_z_270.png,left,0,12.904,MR,hard,7,Piksbkqbn1
left,images/base/9_b.png,images/combined/9_a_x_270_y_0_z_270.png,left,1,18.803,MR,hard,8,Piksbkqbn1
right,images/base/2_a.png,images/combined/2_a_x_270_y_0_z_270.png,right,1,9.238,MR,hard,9,Piksbkqbn1
left,images/base/1_b.png,images/combined/1_a_x_270_y_0_z_90.png,right,0,18.603,MR,hard,10,Piksbkqbn1
left,images/base/13_b.png,images/combined/13_a_x_270_y_0_z_90.png,left,1,23.24,MR,hard,11,Piksbkqbn1
right,images/base/11_a.png,images/combined/11_a_x_90_y_0_z_90.png,right,1,13.721,MR,hard,12,Piksbkqbn1
right,images/base/7_a.png,images/combined/7_a_x_270_y_0_z_270.png,right,1,4.752,MR,hard,13,Piksbkqbn1
left,images/base/6_a.png,images/combined/6_b_x_90_y_0_z_270.png,right,0,7.669,MR,hard,14,Piksbkqbn1
left,images/base/10_a.png,images/combined/10_b_x_270_y_0_z_90.png,left,1,13.608,MR,hard,15,Piksbkqbn1
right,images/base/15_b.png,images/combined/15_b_x_90_y_0_z_270.png,right,1,11.185,MR,hard,16,Piksbkqbn1
right,images/base/12_a.png,images/combined/12_a_x_0_y_0_z_45.png,left,0,4.71,MR,easy,1,dWejUN00z6
left,images/base/13_a.png,images/combined/13_b_x_0_y_0_z_45.png,left,1,2.6983,MR,easy,2,dWejUN00z6
left,images/base/7_b.png,images/combined/7_a_x_0_y_0_z_45.png,left,1,2.8181,MR,easy,3,dWejUN00z6
left,images/base/15_b.png,images/combined/15_a_x_0_y_0_z_315.png,left,1,2.2149,MR,easy,4,dWejUN00z6
right,images/base/1_b.png,images/combined/1_b_x_0_y_0_z_45.png,right,1,2.1657,MR,easy,5,dWejUN00z6
left,images/base/10_a.png,images/combined/10_b_x_0_y_0_z_45.png,right,0,5.2347,MR,easy,6,dWejUN00z6
left,images/base/9_b.png,images/combined/9_a_x_0_y_0_z_45.png,right,0,2.6645,MR,easy,7,dWejUN00z6
left,images/base/4_b.png,images/combined/4_a_x_0_y_0_z_315.png,left,1,2.2957,MR,easy,8,dWejUN00z6
left,images/base/6_a.png,images/combined/6_b_x_0_y_0_z_45.png,left,1,10.075,MR,easy,9,dWejUN00z6
left,images/base/14_b.png,images/combined/14_a_x_0_y_0_z_315.png,left,1,1.3648,MR,easy,10,dWejUN00z6
left,images/base/11_b.png,images/combined/11_a_x_0_y_0_z_45.png,left,1,4.8961,MR,easy,11,dWejUN00z6
right,images/base/2_a.png,images/combined/2_a_x_0_y_0_z_45.png,right,1,2.1614,MR,easy,12,dWejUN00z6
left,images/base/3_a.png,images/combined/3_b_x_0_y_0_z_45.png,left,1,2.2402,MR,easy,13,dWejUN00z6
right,images/base/16_b.png,images/combined/16_b_x_0_y_0_z_45.png,right,1,3.1389,MR,easy,14,dWejUN00z6
right,images/base/8_b.png,images/combined/8_b_x_0_y_0_z_45.png,right,1,2.3385,MR,easy,15,dWejUN00z6
right,images/base/5_b.png,images/combined/5_b_x_0_y_0_z_45.png,right,1,1.4654,MR,easy,16,dWejUN00z6
left,images/base/6_b.png,images/combined/6_a_x_315_y_0_z_270.png,left,1,4.0585,MR,medium,1,dWejUN00z6
left,images/base/10_b.png,images/combined/10_a_x_45_y_0_z_270.png,left,1,5.4562,MR,medium,2,dWejUN00z6
left,images/base/2_a.png,images/combined/2_b_x_315_y_0_z_90.png,left,1,7.4109,MR,medium,3,dWejUN00z6
right,images/base/9_a.png,images/combined/9_a_x_45_y_0_z_270.png,right,1,2.8392,MR,medium,4,dWejUN00z6
right,images/base/5_a.png,images/combined/5_a_x_45_y_0_z_90.png,left,0,3.1644,MR,medium,5,dWejUN00z6
right,images/base/4_a.png,images/combined/4_a_x_315_y_0_z_270.png,right,1,4.4424,MR,medium,6,dWejUN00z6
right,images/base/11_b.png,images/combined/11_b_x_45_y_0_z_270.png,right,1,3.8166,MR,medium,7,dWejUN00z6
left,images/base/14_b.png,images/combined/14_a_x_45_y_0_z_270.png,left,1,6.3488,MR,medium,8,dWejUN00z6
right,images/base/8_b.png,images/combined/8_b_x_45_y_0_z_90.png,right,1,7.0871,MR,medium,9,dWejUN00z6
left,images/base/16_b.png,images/combined/16_a_x_45_y_0_z_90.png,right,0,3.5308,MR,medium,10,dWejUN00z6
left,images/base/7_b.png,images/combined/7_a_x_45_y_0_z_270.png,left,1,2.7231,MR,medium,11,dWejUN00z6
right,images/base/3_a.png,images/combined/3_a_x_45_y_0_z_270.png,right,1,5.771,MR,medium,12,dWejUN00z6
left,images/base/12_a.png,images/combined/12_b_x_45_y_0_z_90.png,left,1,5.252,MR,medium,13,dWejUN00z6
left,images/base/15_a.png,images/combined/15_b_x_315_y_0_z_270.png,left,1,5.7297,MR,medium,14,dWejUN00z6
left,images/base/1_b.png,images/combined/1_a_x_45_y_0_z_90.png,right,0,6.8539,MR,medium,15,dWejUN00z6
right,images/base/13_b.png,images/combined/13_b_x_45_y_0_z_90.png,right,1,4.0198,MR,medium,16,dWejUN00z6
right,images/base/3_a.png,images/combined/3_a_x_270_y_0_z_90.png,left,0,3.561,MR,hard,1,dWejUN00z6
right,images/base/15_b.png,images/combined/15_b_x_90_y_0_z_90.png,left,0,4.8022,MR,hard,2,dWejUN00z6
right,images/base/14_b.png,images/combined/14_b_x_270_y_0_z_270.png,right,1,5.4394,MR,hard,3,dWejUN00z6
right,images/base/7_b.png,images/combined/7_b_x_270_y_0_z_270.png,right,1,6.0461,MR,hard,4,dWejUN00z6
right,images/base/9_a.png,images/combined/9_a_x_90_y_0_z_270.png,right,1,8.4448,MR,hard,5,dWejUN00z6
right,images/base/11_a.png,images/combined/11_a_x_270_y_0_z_270.png,right,1,5.0005,MR,hard,6,dWejUN00z6
left,images/base/12_a.png,images/combined/12_b_x_90_y_0_z_90.png,left,1,8.5039,MR,hard,7,dWejUN00z6
left,images/base/10_b.png,images/combined/10_a_x_270_y_0_z_90.png,left,1,7.2613,MR,hard,8,dWejUN00z6
left,images/base/8_b.png,images/combined/8_a_x_90_y_0_z_270.png,left,1,5.6374,MR,hard,9,dWejUN00z6
right,images/base/6_b.png,images/combined/6_b_x_90_y_0_z_270.png,right,1,7.3071,MR,hard,10,dWejUN00z6
left,images/base/4_a.png,images/combined/4_b_x_270_y_0_z_90.png,left,1,3.5593,MR,hard,11,dWejUN00z6
right,images/base/1_b.png,images/combined/1_b_x_90_y_0_z_90.png,left,0,7.5612,MR,hard,12,dWejUN00z6
right,images/base/16_a.png,images/combined/16_a_x_270_y_0_z_90.png,right,1,3.9665,MR,hard,13,dWejUN00z6
right,images/base/2_a.png,images/combined/2_a_x_270_y_0_z_90.png,right,1,6.2933,MR,hard,14,dWejUN00z6
right,images/base/13_a.png,images/combined/13_a_x_270_y_0_z_270.png,right,1,5.5556,MR,hard,15,dWejUN00z6
left,images/base/5_a.png,images/combined/5_b_x_90_y_0_z_90.png,left,1,2.7818,MR,hard,16,dWejUN00z6
left,images/base/3_b.png,images/combined/3_a_x_0_y_0_z_315.png,left,1,2.6291,MR,easy,1,qG1rKdXNBQ
right,images/base/10_b.png,images/combined/10_b_x_0_y_0_z_45.png,right,1,2.2923,MR,easy,2,qG1rKdXNBQ
left,images/base/4_a.png,images/combined/4_b_x_0_y_0_z_45.png,left,1,3.9182,MR,easy,3,qG1rKdXNBQ
left,images/base/14_a.png,images/combined/14_b_x_0_y_0_z_315.png,left,1,3.4046,MR,easy,4,qG1rKdXNBQ
left,images/base/5_b.png,images/combined/5_a_x_0_y_0_z_45.png,left,1,4.8892,MR,easy,5,qG1rKdXNBQ
right,images/base/1_b.png,images/combined/1_b_x_0_y_0_z_45.png,right,1,3.4486,MR,easy,6,qG1rKdXNBQ
right,images/base/9_a.png,images/combined/9_a_x_0_y_0_z_315.png,right,1,2.8477,MR,easy,7,qG1rKdXNBQ
left,images/base/8_a.png,images/combined/8_b_x_0_y_0_z_315.png,left,1,3.0212,MR,easy,8,qG1rKdXNBQ
right,images/base/6_b.png,images/combined/6_b_x_0_y_0_z_45.png,right,1,2.8231,MR,easy,9,qG1rKdXNBQ
right,images/base/12_b.png,images/combined/12_b_x_0_y_0_z_45.png,right,1,2.666,MR,easy,10,qG1rKdXNBQ
left,images/base/16_b.png,images/combined/16_a_x_0_y_0_z_45.png,left,1,3.9934,MR,easy,11,qG1rKdXNBQ
left,images/base/11_a.png,images/combined/11_b_x_0_y_0_z_315.png,left,1,2.674,MR,easy,12,qG1rKdXNBQ
left,images/base/2_b.png,images/combined/2_a_x_0_y_0_z_45.png,left,1,3.6055,MR,easy,13,qG1rKdXNBQ
left,images/base/15_a.png,images/combined/15_b_x_0_y_0_z_45.png,left,1,2.5943,MR,easy,14,qG1rKdXNBQ
right,images/base/7_a.png,images/combined/7_a_x_0_y_0_z_315.png,right,1,2.4598,MR,easy,15,qG1rKdXNBQ
right,images/base/13_b.png,images/combined/13_b_x_0_y_0_z_315.png,right,1,1.9675,MR,easy,16,qG1rKdXNBQ
left,images/base/15_a.png,images/combined/15_b_x_45_y_0_z_270.png,left,1,6.3003,MR,medium,1,qG1rKdXNBQ
left,images/base/10_b.png,images/combined/10_a_x_315_y_0_z_270.png,right,0,5.5675,MR,medium,2,qG1rKdXNBQ
left,images/base/8_a.png,images/combined/8_b_x_315_y_0_z_270.png,right,0,5.6345,MR,medium,3,qG1rKdXNBQ
left,images/base/4_a.png,images/combined/4_b_x_45_y_0_z_90.png,left,1,3.0853,MR,medium,4,qG1rKdXNBQ
left,images/base/2_b.png,images/combined/2_a_x_315_y_0_z_270.png,left,1,5.1173,MR,medium,5,qG1rKdXNBQ
right,images/base/11_b.png,images/combined/11_b_x_315_y_0_z_90.png,right,1,3.3338,MR,medium,6,qG1rKdXNBQ
left,images/base/3_b.png,images/combined/3_a_x_45_y_0_z_90.png,left,1,5.9738,MR,medium,7,qG1rKdXNBQ
left,images/base/9_b.png,images/combined/9_a_x_315_y_0_z_90.png,left,1,5.4093,MR,medium,8,qG1rKdXNBQ
right,images/base/14_a.png,images/combined/14_a_x_45_y_0_z_270.png,right,1,10.8507,MR,medium,9,qG1rKdXNBQ
left,images/base/6_a.png,images/combined/6_b_x_315_y_0_z_90.png,left,1,2.8287,MR,medium,10,qG1rKdXNBQ
left,images/base/1_a.png,images/combined/1_b_x_315_y_0_z_90.png,right,0,8.546,MR,medium,11,qG1rKdXNBQ
right,images/base/13_a.png,images/combined/13_a_x_45_y_0_z_90.png,right,1,2.5534,MR,medium,12,qG1rKdXNBQ
right,images/base/7_a.png,images/combined/7_a_x_45_y_0_z_270.png,right,1,3.2676,MR,medium,13,qG1rKdXNBQ
left,images/base/16_b.png,images/combined/16_a_x_315_y_0_z_270.png,right,0,12.8025,MR,medium,14,qG1rKdXNBQ
right,images/base/12_b.png,images/combined/12_b_x_315_y_0_z_90.png,right,1,3.1729,MR,medium,15,qG1rKdXNBQ
left,images/base/5_b.png,images/combined/5_a_x_45_y_0_z_90.png,left,1,5.7545,MR,medium,16,qG1rKdXNBQ
right,images/base/12_b.png,images/combined/12_b_x_90_y_0_z_90.png,right,1,7.1426,MR,hard,1,qG1rKdXNBQ
right,images/base/6_a.png,images/combined/6_a_x_270_y_0_z_90.png,right,1,5.0974,MR,hard,2,qG1rKdXNBQ
left,images/base/3_b.png,images/combined/3_a_x_90_y_0_z_270.png,left,1,4.7977,MR,hard,3,qG1rKdXNBQ
right,images/base/9_a.png,images/combined/9_a_x_270_y_0_z_90.png,right,1,2.8394,MR,hard,4,qG1rKdXNBQ
left,images/base/1_a.png,images/combined/1_b_x_90_y_0_z_90.png,left,1,5.2145,MR,hard,5,qG1rKdXNBQ
left,images/base/16_a.png,images/combined/16_b_x_90_y_0_z_90.png,right,0,10.4792,MR,hard,6,qG1rKdXNBQ
right,images/base/14_a.png,images/combined/14_a_x_90_y_0_z_270.png,right,1,19.2603,MR,hard,7,qG1rKdXNBQ
left,images/base/13_b.png,images/combined/13_a_x_270_y_0_z_270.png,left,1,3.8335,MR,hard,8,qG1rKdXNBQ
right,images/base/11_b.png,images/combined/11_b_x_90_y_0_z_90.png,right,1,4.755,MR,hard,9,qG1rKdXNBQ
left,images/base/8_a.png,images/combined/8_b_x_270_y_0_z_90.png,right,0,5.4713,MR,hard,10,qG1rKdXNBQ
right,images/base/15_a.png,images/combined/15_a_x_90_y_0_z_270.png,right,1,9.4267,MR,hard,11,qG1rKdXNBQ
right,images/base/5_b.png,images/combined/5_b_x_270_y_0_z_270.png,right,1,6.588,MR,hard,12,qG1rKdXNBQ
left,images/base/7_a.png,images/combined/7_b_x_90_y_0_z_270.png,left,1,5.9582,MR,hard,13,qG1rKdXNBQ
right,images/base/4_a.png,images/combined/4_a_x_90_y_0_z_270.png,right,1,2.9055,MR,hard,14,qG1rKdXNBQ
right,images/base/10_a.png,images/combined/10_a_x_270_y_0_z_270.png,right,1,3.0861,MR,hard,15,qG1rKdXNBQ
left,images/base/2_a.png,images/combined/2_b_x_270_y_0_z_90.png,left,1,5.6189,MR,hard,16,qG1rKdXNBQ
right,images/base/1_b.png,images/combined/1_b_x_0_y_0_z_45.png,right,1,5.4988,MR,easy,1,2dX8HaA5QM
left,images/base/13_b.png,images/combined/13_a_x_0_y_0_z_45.png,right,0,16.1871,MR,easy,2,2dX8HaA5QM
left,images/base/14_b.png,images/combined/14_a_x_0_y_0_z_45.png,right,0,7.0685,MR,easy,3,2dX8HaA5QM
left,images/base/5_a.png,images/combined/5_b_x_0_y_0_z_315.png,right,0,1.7238,MR,easy,4,2dX8HaA5QM
right,images/base/2_a.png,images/combined/2_a_x_0_y_0_z_315.png,right,1,16.0169,MR,easy,5,2dX8HaA5QM
right,images/base/10_a.png,images/combined/10_a_x_0_y_0_z_315.png,right,1,5.1899,MR,easy,6,2dX8HaA5QM
left,images/base/15_a.png,images/combined/15_b_x_0_y_0_z_315.png,left,1,4.6169,MR,easy,7,2dX8HaA5QM
left,images/base/7_a.png,images/combined/7_b_x_0_y_0_z_45.png,left,1,8.536,MR,easy,8,2dX8HaA5QM
left,images/base/4_b.png,images/combined/4_a_x_0_y_0_z_315.png,left,1,2.0275,MR,easy,9,2dX8HaA5QM
right,images/base/9_b.png,images/combined/9_b_x_0_y_0_z_315.png,right,1,2.1686,MR,easy,10,2dX8HaA5QM
right,images/base/6_a.png,images/combined/6_a_x_0_y_0_z_315.png,right,1,1.9174,MR,easy,11,2dX8HaA5QM
right,images/base/3_a.png,images/combined/3_a_x_0_y_0_z_45.png,right,1,2.4518,MR,easy,12,2dX8HaA5QM
right,images/base/8_b.png,images/combined/8_b_x_0_y_0_z_45.png,right,1,1.962,MR,easy,13,2dX8HaA5QM
left,images/base/16_b.png,images/combined/16_a_x_0_y_0_z_45.png,right,0,1.5984,MR,easy,14,2dX8HaA5QM
right,images/base/11_b.png,images/combined/11_b_x_0_y_0_z_315.png,right,1,5.9179,MR,easy,15,2dX8HaA5QM
left,images/base/12_b.png,images/combined/12_a_x_0_y_0_z_315.png,left,1,2.2362,MR,easy,16,2dX8HaA5QM
right,images/base/16_b.png,images/combined/16_b_x_45_y_0_z_90.png,right,1,8.9663,MR,medium,1,2dX8HaA5QM
right,images/base/15_b.png,images/combined/15_b_x_45_y_0_z_90.png,right,1,1.7657,MR,medium,2,2dX8HaA5QM
left,images/base/2_a.png,images/combined/2_b_x_45_y_0_z_90.png,right,0,20.8177,MR,medium,3,2dX8HaA5QM
left,images/base/1_b.png,images/combined/1_a_x_315_y_0_z_90.png,left,1,12.0777,MR,medium,4,2dX8HaA5QM
left,images/base/13_a.png,images/combined/13_b_x_45_y_0_z_90.png,left,1,9.2803,MR,medium,5,2dX8HaA5QM
right,images/base/6_a.png,images/combined/6_a_x_45_y_0_z_270.png,right,1,4.6492000000000004,MR,medium,6,2dX8HaA5QM
left,images/base/5_b.png,images/combined/5_a_x_315_y_0_z_270.png,left,1,5.1069,MR,medium,7,2dX8HaA5QM
left,images/base/14_a.png,images/combined/14_b_x_315_y_0_z_270.png,left,1,3.7154,MR,medium,8,2dX8HaA5QM
left,images/base/10_a.png,images/combined/10_b_x_315_y_0_z_270.png,left,1,7.8525,MR,medium,9,2dX8HaA5QM
left,images/base/3_a.png,images/combined/3_b_x_45_y_0_z_90.png,right,0,17.2993,MR,medium,10,2dX8HaA5QM
right,images/base/11_b.png,images/combined/11_b_x_45_y_0_z_90.png,left,0,19.1813,MR,medium,11,2dX8HaA5QM
left,images/base/12_b.png,images/combined/12_a_x_45_y_0_z_270.png,left,1,8.2811,MR,medium,12,2dX8HaA5QM
left,images/base/7_b.png,images/combined/7_a_x_45_y_0_z_90.png,left,1,7.3152,MR,medium,13,2dX8HaA5QM
left,images/base/4_b.png,images/combined/4_a_x_45_y_0_z_270.png,left,1,4.7529,MR,medium,14,2dX8HaA5QM
left,images/base/8_a.png,images/combined/8_b_x_45_y_0_z_270.png,left,1,10.9584,MR,medium,15,2dX8HaA5QM
left,images/base/9_b.png,images/combined/9_a_x_45_y_0_z_90.png,left,1,3.1495,MR,medium,16,2dX8HaA5QM
left,images/base/9_b.png,images/combined/9_a_x_270_y_0_z_90.png,right,0,21.9615,MR,hard,1,2dX8HaA5QM
left,images/base/8_b.png,images/combined/8_a_x_270_y_0_z_90.png,left,1,20.8221,MR,hard,2,2dX8HaA5QM
left,images/base/3_b.png,images/combined/3_a_x_270_y_0_z_90.png,left,1,15.6372,MR,hard,3,2dX8HaA5QM
left,images/base/4_a.png,images/combined/4_b_x_90_y_0_z_270.png,left,1,6.1867,MR,hard,4,2dX8HaA5QM
right,images/base/10_b.png,images/combined/10_b_x_270_y_0_z_90.png,right,1,9.6308,MR,hard,5,2dX8HaA5QM
right,images/base/13_b.png,images/combined/13_b_x_90_y_0_z_270.png,right,1,10.8666,MR,hard,6,2dX8HaA5QM
right,images/base/6_b.png,images/combined/6_b_x_270_y_0_z_270.png,right,1,10.4336,MR,hard,7,2dX8HaA5QM
right,images/base/5_b.png,images/combined/5_b_x_90_y_0_z_270.png,right,1,15.0853,MR,hard,8,2dX8HaA5QM
right,images/base/1_a.png,images/combined/1_a_x_90_y_0_z_270.png,right,1,8.2325,MR,hard,9,2dX8HaA5QM
left,images/base/7_a.png,images/combined/7_b_x_270_y_0_z_90.png,left,1,7.691,MR,hard,10,2dX8HaA5QM
left,images/base/12_b.png,images/combined/12_a_x_270_y_0_z_90.png,left,1,10.9942,MR,hard,11,2dX8HaA5QM
left,images/base/15_a.png,images/combined/15_b_x_270_y_0_z_270.png,left,1,13.4048,MR,hard,12,2dX8HaA5QM
left,images/base/11_a.png,images/combined/11_b_x_270_y_0_z_90.png,left,1,7.8003,MR,hard,13,2dX8HaA5QM
right,images/base/16_a.png,images/combined/16_a_x_90_y_0_z_270.png,right,1,14.6408,MR,hard,14,2dX8HaA5QM
left,images/base/14_a.png,images/combined/14_b_x_90_y_0_z_270.png,left,1,8.9373,MR,hard,15,2dX8HaA5QM
right,images/base/2_a.png,images/combined/2_a_x_90_y_0_z_90.png,right,1,7.4364,MR,hard,16,2dX8HaA5QM
left,images/base/13_a.png,images/combined/13_b_x_0_y_0_z_45.png,right,0,11.4,MR,easy,1,jipsxYWATF
right,images/base/2_b.png,images/combined/2_b_x_0_y_0_z_45.png,right,1,11.952,MR,easy,2,jipsxYWATF
right,images/base/7_b.png,images/combined/7_b_x_0_y_0_z_45.png,left,0,9.911,MR,easy,3,jipsxYWATF
left,images/base/6_b.png,images/combined/6_a_x_0_y_0_z_315.png,right,0,11.951,MR,easy,4,jipsxYWATF
right,images/base/1_a.png,images/combined/1_a_x_0_y_0_z_45.png,right,1,7.791,MR,easy,5,jipsxYWATF
right,images/base/14_b.png,images/combined/14_b_x_0_y_0_z_45.png,right,1,11.331,MR,easy,6,jipsxYWATF
left,images/base/5_a.png,images/combined/5_b_x_0_y_0_z_45.png,left,1,9.453,MR,easy,7,jipsxYWATF
left,images/base/12_a.png,images/combined/12_b_x_0_y_0_z_315.png,right,0,11.849,MR,easy,8,jipsxYWATF
left,images/base/9_a.png,images/combined/9_b_x_0_y_0_z_45.png,left,1,12.756,MR,easy,9,jipsxYWATF
right,images/base/11_a.png,images/combined/11_a_x_0_y_0_z_45.png,right,1,11.165,MR,easy,10,jipsxYWATF
left,images/base/15_a.png,images/combined/15_b_x_0_y_0_z_45.png,right,0,18.05,MR,easy,11,jipsxYWATF
left,images/base/8_b.png,images/combined/8_a_x_0_y_0_z_45.png,right,0,9.418,MR,easy,12,jipsxYWATF
right,images/base/3_a.png,images/combined/3_a_x_0_y_0_z_315.png,right,1,6.821,MR,easy,13,jipsxYWATF
left,images/base/10_a.png,images/combined/10_b_x_0_y_0_z_315.png,right,0,4.028,MR,easy,14,jipsxYWATF
right,images/base/4_b.png,images/combined/4_b_x_0_y_0_z_45.png,right,1,4.78,MR,easy,15,jipsxYWATF
left,images/base/16_b.png,images/combined/16_a_x_0_y_0_z_45.png,left,1,9.319,MR,easy,16,jipsxYWATF
right,images/base/15_a.png,images/combined/15_a_x_315_y_0_z_270.png,left,0,2.488,MR,medium,1,jipsxYWATF
left,images/base/13_a.png,images/combined/13_b_x_315_y_0_z_270.png,right,0,1.646,MR,medium,2,jipsxYWATF
right,images/base/11_b.png,images/combined/11_b_x_45_y_0_z_90.png,right,1,1.68,MR,medium,3,jipsxYWATF
left,images/base/3_b.png,images/combined/3_a_x_45_y_0_z_270.png,left,1,0.943,MR,medium,4,jipsxYWATF
left,images/base/14_a.png,images/combined/14_b_x_315_y_0_z_270.png,right,0,1.028,MR,medium,5,jipsxYWATF
right,images/base/9_a.png,images/combined/9_a_x_45_y_0_z_270.png,left,0,1.374,MR,medium,6,jipsxYWATF
left,images/base/8_a.png,images/combined/8_b_x_315_y_0_z_270.png,right,0,0.829,MR,medium,7,jipsxYWATF
right,images/base/12_a.png,images/combined/12_a_x_315_y_0_z_270.png,left,0,0.722,MR,medium,8,jipsxYWATF
left,images/base/6_a.png,images/combined/6_b_x_315_y_0_z_90.png,right,0,2.717,MR,medium,9,jipsxYWATF
right,images/base/1_b.png,images/combined/1_b_x_315_y_0_z_270.png,left,0,1.413,MR,medium,10,jipsxYWATF
left,images/base/7_b.png,images/combined/7_a_x_315_y_0_z_270.png,right,0,2.5,MR,medium,11,jipsxYWATF
right,images/base/10_a.png,images/combined/10_a_x_315_y_0_z_270.png,right,1,1.772,MR,medium,12,jipsxYWATF
left,images/base/2_b.png,images/combined/2_a_x_315_y_0_z_90.png,left,1,1.398,MR,medium,13,jipsxYWATF
right,images/base/4_b.png,images/combined/4_b_x_45_y_0_z_270.png,left,0,3.02,MR,medium,14,jipsxYWATF
right,images/base/16_a.png,images/combined/16_a_x_315_y_0_z_90.png,left,0,1.872,MR,medium,15,jipsxYWATF
right,images/base/5_a.png,images/combined/5_a_x_45_y_0_z_90.png,left,0,1.523,MR,medium,16,jipsxYWATF
left,images/base/10_b.png,images/combined/10_a_x_270_y_0_z_90.png,left,1,4.389,MR,hard,1,jipsxYWATF
right,images/base/5_a.png,images/combined/5_a_x_90_y_0_z_90.png,left,0,7.037,MR,hard,2,jipsxYWATF
left,images/base/11_b.png,images/combined/11_a_x_90_y_0_z_90.png,left,1,10.177,MR,hard,3,jipsxYWATF
right,images/base/13_b.png,images/combined/13_b_x_90_y_0_z_90.png,left,0,3.904,MR,hard,4,jipsxYWATF
right,images/base/1_b.png,images/combined/1_b_x_90_y_0_z_90.png,right,1,5.402,MR,hard,5,jipsxYWATF
right,images/base/6_b.png,images/combined/6_b_x_270_y_0_z_90.png,right,1,3.948,MR,hard,6,jipsxYWATF
left,images/base/12_b.png,images/combined/12_a_x_90_y_0_z_90.png,left,1,2.166,MR,hard,7,jipsxYWATF
right,images/base/15_a.png,images/combined/15_a_x_270_y_0_z_90.png,left,0,4.132,MR,hard,8,jipsxYWATF
right,images/base/2_a.png,images/combined/2_a_x_90_y_0_z_90.png,left,0,4.847,MR,hard,9,jipsxYWATF
left,images/base/9_b.png,images/combined/9_a_x_270_y_0_z_90.png,left,1,7.872,MR,hard,10,jipsxYWATF
right,images/base/7_b.png,images/combined/7_b_x_90_y_0_z_90.png,right,1,6.069,MR,hard,11,jipsxYWATF
right,images/base/8_a.png,images/combined/8_a_x_270_y_0_z_270.png,left,0,2.701,MR,hard,12,jipsxYWATF
right,images/base/16_b.png,images/combined/16_b_x_90_y_0_z_270.png,right,1,2.216,MR,hard,13,jipsxYWATF
right,images/base/4_a.png,images/combined/4_a_x_270_y_0_z_270.png,left,0,2.742,MR,hard,14,jipsxYWATF
right,images/base/14_b.png,images/combined/14_b_x_270_y_0_z_270.png,left,0,2.277,MR,hard,15,jipsxYWATF
left,images/base/3_a.png,images/combined/3_b_x_90_y_0_z_270.png,left,1,5.282,MR,hard,16,jipsxYWATF
left,images/base/5_b.png,images/combined/5_a_x_0_y_0_z_45.png,right,0,4.7919,MR,easy,1,1W5HQaoCSR
right,images/base/4_a.png,images/combined/4_a_x_0_y_0_z_315.png,left,0,1.2491,MR,easy,2,1W5HQaoCSR
right,images/base/13_b.png,images/combined/13_b_x_0_y_0_z_45.png,right,1,5.5053,MR,easy,3,1W5HQaoCSR
right,images/base/3_b.png,images/combined/3_b_x_0_y_0_z_45.png,left,0,1.0582,MR,easy,4,1W5HQaoCSR
left,images/base/14_a.png,images/combined/14_b_x_0_y_0_z_315.png,left,1,0.8159,MR,easy,5,1W5HQaoCSR
right,images/base/6_b.png,images/combined/6_b_x_0_y_0_z_45.png,right,1,1.472,MR,easy,6,1W5HQaoCSR
right,images/base/15_a.png,images/combined/15_a_x_0_y_0_z_45.png,left,0,0.671,MR,easy,7,1W5HQaoCSR
right,images/base/11_a.png,images/combined/11_a_x_0_y_0_z_315.png,right,1,0.6174,MR,easy,8,1W5HQaoCSR
left,images/base/16_b.png,images/combined/16_a_x_0_y_0_z_315.png,right,0,0.673,MR,easy,9,1W5HQaoCSR
left,images/base/1_a.png,images/combined/1_b_x_0_y_0_z_45.png,right,0,0.5154,MR,easy,10,1W5HQaoCSR
left,images/base/2_a.png,images/combined/2_b_x_0_y_0_z_45.png,right,0,0.4852,MR,easy,11,1W5HQaoCSR
right,images/base/8_a.png,images/combined/8_a_x_0_y_0_z_315.png,left,0,0.4153,MR,easy,12,1W5HQaoCSR
right,images/base/9_b.png,images/combined/9_b_x_0_y_0_z_45.png,right,1,2.0984,MR,easy,13,1W5HQaoCSR
left,images/base/10_b.png,images/combined/10_a_x_0_y_0_z_45.png,right,0,1.8832,MR,easy,14,1W5HQaoCSR
right,images/base/7_b.png,images/combined/7_b_x_0_y_0_z_315.png,left,0,1.3427,MR,easy,15,1W5HQaoCSR
left,images/base/12_a.png,images/combined/12_b_x_0_y_0_z_315.png,right,0,3.1351,MR,easy,16,1W5HQaoCSR
left,images/base/14_b.png,images/combined/14_a_x_315_y_0_z_270.png,left,1,2.1764,MR,medium,1,1W5HQaoCSR
right,images/base/2_b.png,images/combined/2_b_x_315_y_0_z_90.png,right,1,1.4516,MR,medium,2,1W5HQaoCSR
left,images/base/8_b.png,images/combined/8_a_x_315_y_0_z_270.png,left,1,1.6169,MR,medium,3,1W5HQaoCSR
right,images/base/15_a.png,images/combined/15_a_x_45_y_0_z_90.png,right,1,1.0018,MR,medium,4,1W5HQaoCSR
left,images/base/1_a.png,images/combined/1_b_x_315_y_0_z_270.png,left,1,0.8653,MR,medium,5,1W5HQaoCSR
right,images/base/7_a.png,images/combined/7_a_x_45_y_0_z_270.png,right,1,0.954,MR,medium,6,1W5HQaoCSR
left,images/base/13_a.png,images/combined/13_b_x_45_y_0_z_90.png,right,0,0.8349,MR,medium,7,1W5HQaoCSR
left,images/base/16_a.png,images/combined/16_b_x_315_y_0_z_270.png,right,0,0.7009,MR,medium,8,1W5HQaoCSR
left,images/base/5_b.png,images/combined/5_a_x_315_y_0_z_270.png,left,1,2.8318,MR,medium,9,1W5HQaoCSR
left,images/base/3_b.png,images/combined/3_a_x_45_y_0_z_270.png,left,1,0.8503,MR,medium,10,1W5HQaoCSR
left,images/base/4_a.png,images/combined/4_b_x_315_y_0_z_270.png,right,0,1.0039,MR,medium,11,1W5HQaoCSR
right,images/base/11_b.png,images/combined/11_b_x_45_y_0_z_90.png,left,0,1.0019,MR,medium,12,1W5HQaoCSR
right,images/base/6_b.png,images/combined/6_b_x_45_y_0_z_90.png,left,0,0.9839,MR,medium,13,1W5HQaoCSR
right,images/base/12_b.png,images/combined/12_b_x_45_y_0_z_90.png,left,0,0.7511,MR,medium,14,1W5HQaoCSR
left,images/base/10_b.png,images/combined/10_a_x_45_y_0_z_90.png,right,0,0.9838,MR,medium,15,1W5HQaoCSR
left,images/base/9_b.png,images/combined/9_a_x_315_y_0_z_270.png,left,1,13.3716,MR,medium,16,1W5HQaoCSR
left,images/base/15_b.png,images/combined/15_a_x_90_y_0_z_90.png,right,0,2.1025,MR,hard,1,1W5HQaoCSR
left,images/base/1_b.png,images/combined/1_a_x_270_y_0_z_270.png,right,0,3.3814,MR,hard,2,1W5HQaoCSR
left,images/base/8_a.png,images/combined/8_b_x_270_y_0_z_270.png,right,0,5.4346,MR,hard,3,1W5HQaoCSR
right,images/base/12_b.png,images/combined/12_b_x_90_y_0_z_270.png,left,0,2.3567,MR,hard,4,1W5HQaoCSR
left,images/base/13_b.png,images/combined/13_a_x_90_y_0_z_270.png,left,1,3.948,MR,hard,5,1W5HQaoCSR
left,images/base/4_b.png,images/combined/4_a_x_90_y_0_z_90.png,right,0,8.3336,MR,hard,6,1W5HQaoCSR
left,images/base/10_b.png,images/combined/10_a_x_90_y_0_z_270.png,right,0,1.7867,MR,hard,7,1W5HQaoCSR
right,images/base/16_a.png,images/combined/16_a_x_270_y_0_z_90.png,left,0,1.92,MR,hard,8,1W5HQaoCSR
left,images/base/14_b.png,images/combined/14_a_x_90_y_0_z_90.png,right,0,2.467,MR,hard,9,1W5HQaoCSR
right,images/base/5_a.png,images/combined/5_a_x_270_y_0_z_270.png,left,0,2.2726,MR,hard,10,1W5HQaoCSR
right,images/base/11_b.png,images/combined/11_b_x_270_y_0_z_90.png,left,0,1.2823,MR,hard,11,1W5HQaoCSR
left,images/base/3_b.png,images/combined/3_a_x_270_y_0_z_270.png,left,1,1.4463,MR,hard,12,1W5HQaoCSR
right,images/base/2_b.png,images/combined/2_b_x_270_y_0_z_270.png,left,0,1.1346,MR,hard,13,1W5HQaoCSR
right,images/base/9_b.png,images/combined/9_b_x_270_y_0_z_270.png,right,1,1.0234,MR,hard,14,1W5HQaoCSR
right,images/base/7_b.png,images/combined/7_b_x_90_y_0_z_90.png,right,1,0.8533,MR,hard,15,1W5HQaoCSR
right,images/base/6_b.png,images/combined/6_b_x_270_y_0_z_270.png,right,1,0.8501,MR,hard,16,1W5HQaoCSR
left,images/base/13_a.png,images/combined/13_b_x_0_y_0_z_45.png,left,1,15.632,MR,easy,1,qn7iE4w9eA
right,images/base/14_a.png,images/combined/14_a_x_0_y_0_z_315.png,right,1,4.328,MR,easy,2,qn7iE4w9eA
left,images/base/7_b.png,images/combined/7_a_x_0_y_0_z_45.png,right,0,18.308,MR,easy,3,qn7iE4w9eA
left,images/base/1_a.png,images/combined/1_b_x_0_y_0_z_315.png,left,1,7.45,MR,easy,4,qn7iE4w9eA
right,images/base/11_a.png,images/combined/11_a_x_0_y_0_z_45.png,left,0,13.366,MR,easy,5,qn7iE4w9eA
left,images/base/4_b.png,images/combined/4_a_x_0_y_0_z_45.png,left,1,3.942,MR,easy,6,qn7iE4w9eA
left,images/base/8_a.png,images/combined/8_b_x_0_y_0_z_45.png,left,1,4.041,MR,easy,7,qn7iE4w9eA
left,images/base/16_b.png,images/combined/16_a_x_0_y_0_z_45.png,right,0,33.39,MR,easy,8,qn7iE4w9eA
right,images/base/6_a.png,images/combined/6_a_x_0_y_0_z_315.png,right,1,11.608,MR,easy,9,qn7iE4w9eA
left,images/base/2_b.png,images/combined/2_a_x_0_y_0_z_45.png,left,1,7.786,MR,easy,10,qn7iE4w9eA
right,images/base/15_b.png,images/combined/15_b_x_0_y_0_z_45.png,right,1,2.001,MR,easy,11,qn7iE4w9eA
right,images/base/10_a.png,images/combined/10_a_x_0_y_0_z_45.png,right,1,1.993,MR,easy,12,qn7iE4w9eA
right,images/base/5_a.png,images/combined/5_a_x_0_y_0_z_315.png,right,1,2.602,MR,easy,13,qn7iE4w9eA
left,images/base/3_a.png,images/combined/3_b_x_0_y_0_z_45.png,left,1,5.766,MR,easy,14,qn7iE4w9eA
right,images/base/12_a.png,images/combined/12_a_x_0_y_0_z_315.png,right,1,3.365,MR,easy,15,qn7iE4w9eA
left,images/base/9_b.png,images/combined/9_a_x_0_y_0_z_315.png,left,1,3.851,MR,easy,16,qn7iE4w9eA
right,images/base/8_a.png,images/combined/8_a_x_45_y_0_z_270.png,right,1,12.795,MR,medium,1,qn7iE4w9eA
left,images/base/12_a.png,images/combined/12_b_x_315_y_0_z_90.png,left,1,13.833,MR,medium,2,qn7iE4w9eA
left,images/base/10_b.png,images/combined/10_a_x_315_y_0_z_90.png,right,0,13.19,MR,medium,3,qn7iE4w9eA
left,images/base/6_b.png,images/combined/6_a_x_315_y_0_z_90.png,left,1,9.385,MR,medium,4,qn7iE4w9eA
right,images/base/16_a.png,images/combined/16_a_x_315_y_0_z_270.png,left,0,9.009,MR,medium,5,qn7iE4w9eA
right,images/base/15_b.png,images/combined/15_b_x_315_y_0_z_270.png,right,1,30.269,MR,medium,6,qn7iE4w9eA
right,images/base/3_a.png,images/combined/3_a_x_45_y_0_z_90.png,right,1,9.308,MR,medium,7,qn7iE4w9eA
left,images/base/2_a.png,images/combined/2_b_x_45_y_0_z_90.png,left,1,8.1,MR,medium,8,qn7iE4w9eA
left,images/base/4_b.png,images/combined/4_a_x_45_y_0_z_270.png,left,1,5.476,MR,medium,9,qn7iE4w9eA
right,images/base/14_b.png,images/combined/14_b_x_315_y_0_z_270.png,right,1,19.549,MR,medium,10,qn7iE4w9eA
left,images/base/13_a.png,images/combined/13_b_x_45_y_0_z_90.png,left,1,10.17,MR,medium,11,qn7iE4w9eA
right,images/base/5_a.png,images/combined/5_a_x_315_y_0_z_270.png,right,1,6.5,MR,medium,12,qn7iE4w9eA
left,images/base/9_b.png,images/combined/9_a_x_315_y_0_z_90.png,left,1,24.226,MR,medium,13,qn7iE4w9eA
left,images/base/1_b.png,images/combined/1_a_x_315_y_0_z_90.png,left,1,11.893,MR,medium,14,qn7iE4w9eA
right,images/base/11_b.png,images/combined/11_b_x_315_y_0_z_90.png,right,1,27.268,MR,medium,15,qn7iE4w9eA
left,images/base/7_a.png,images/combined/7_b_x_45_y_0_z_270.png,left,1,10.043,MR,medium,16,qn7iE4w9eA
right,images/base/15_a.png,images/combined/15_a_x_270_y_0_z_90.png,left,0,10.794,MR,hard,1,qn7iE4w9eA
right,images/base/5_b.png,images/combined/5_b_x_90_y_0_z_270.png,right,1,5.553,MR,hard,2,qn7iE4w9eA
right,images/base/9_a.png,images/combined/9_a_x_270_y_0_z_90.png,right,1,2.366,MR,hard,3,qn7iE4w9eA
left,images/base/16_b.png,images/combined/16_a_x_270_y_0_z_270.png,left,1,9.998,MR,hard,4,qn7iE4w9eA
left,images/base/12_a.png,images/combined/12_b_x_90_y_0_z_90.png,left,1,9.194,MR,hard,5,qn7iE4w9eA
right,images/base/4_b.png,images/combined/4_b_x_270_y_0_z_90.png,right,1,8.656,MR,hard,6,qn7iE4w9eA
right,images/base/1_b.png,images/combined/1_b_x_90_y_0_z_90.png,left,0,21.659,MR,hard,7,qn7iE4w9eA
left,images/base/8_b.png,images/combined/8_a_x_90_y_0_z_270.png,left,1,10.491,MR,hard,8,qn7iE4w9eA
left,images/base/10_b.png,images/combined/10_a_x_270_y_0_z_90.png,left,1,3.943,MR,hard,9,qn7iE4w9eA
left,images/base/11_a.png,images/combined/11_b_x_90_y_0_z_90.png,left,1,15.201,MR,hard,10,qn7iE4w9eA
left,images/base/3_a.png,images/combined/3_b_x_270_y_0_z_90.png,left,1,10.224,MR,hard,11,qn7iE4w9eA
left,images/base/13_a.png,images/combined/13_b_x_90_y_0_z_90.png,left,1,8.949,MR,hard,12,qn7iE4w9eA
left,images/base/2_b.png,images/combined/2_a_x_270_y_0_z_90.png,left,1,10.458,MR,hard,13,qn7iE4w9eA
right,images/base/7_b.png,images/combined/7_b_x_90_y_0_z_270.png,right,1,7.787,MR,hard,14,qn7iE4w9eA
left,images/base/14_b.png,images/combined/14_a_x_270_y_0_z_270.png,left,1,4.217,MR,hard,15,qn7iE4w9eA
right,images/base/6_a.png,images/combined/6_a_x_90_y_0_z_90.png,left,0,19.108,MR,hard,16,qn7iE4w9eA
left,images/base/7_a.png,images/combined/7_b_x_0_y_0_z_45.png,left,1,8.0046,MR,easy,1,kuTZjru3VL
right,images/base/11_b.png,images/combined/11_b_x_0_y_0_z_315.png,right,1,4.9076,MR,easy,2,kuTZjru3VL
right,images/base/14_a.png,images/combined/14_a_x_0_y_0_z_315.png,right,1,6.4194,MR,easy,3,kuTZjru3VL
left,images/base/6_b.png,images/combined/6_a_x_0_y_0_z_315.png,left,1,4.2676,MR,easy,4,kuTZjru3VL
left,images/base/12_a.png,images/combined/12_b_x_0_y_0_z_315.png,right,0,6.107,MR,easy,5,kuTZjru3VL
right,images/base/4_b.png,images/combined/4_b_x_0_y_0_z_45.png,right,1,5.6014,MR,easy,6,kuTZjru3VL
right,images/base/1_b.png,images/combined/1_b_x_0_y_0_z_45.png,right,1,4.0163,MR,easy,7,kuTZjru3VL
right,images/base/8_b.png,images/combined/8_b_x_0_y_0_z_45.png,right,1,2.4667,MR,easy,8,kuTZjru3VL
left,images/base/13_a.png,images/combined/13_b_x_0_y_0_z_315.png,left,1,3.1418,MR,easy,9,kuTZjru3VL
left,images/base/10_b.png,images/combined/10_a_x_0_y_0_z_315.png,left,1,7.0014,MR,easy,10,kuTZjru3VL
left,images/base/2_a.png,images/combined/2_b_x_0_y_0_z_315.png,left,1,8.9445,MR,easy,11,kuTZjru3VL
right,images/base/16_a.png,images/combined/16_a_x_0_y_0_z_315.png,right,1,5.4698,MR,easy,12,kuTZjru3VL
left,images/base/9_a.png,images/combined/9_b_x_0_y_0_z_315.png,left,1,7.7153,MR,easy,13,kuTZjru3VL
left,images/base/3_a.png,images/combined/3_b_x_0_y_0_z_45.png,left,1,6.8523,MR,easy,14,kuTZjru3VL
right,images/base/5_b.png,images/combined/5_b_x_0_y_0_z_45.png,right,1,4.0004,MR,easy,15,kuTZjru3VL
left,images/base/15_a.png,images/combined/15_b_x_0_y_0_z_45.png,right,0,4.8736,MR,easy,16,kuTZjru3VL
right,images/base/15_b.png,images/combined/15_b_x_315_y_0_z_270.png,right,1,3.3759,MR,medium,1,kuTZjru3VL
left,images/base/16_a.png,images/combined/16_b_x_45_y_0_z_90.png,right,0,5.1016,MR,medium,2,kuTZjru3VL
left,images/base/1_b.png,images/combined/1_a_x_45_y_0_z_270.png,right,0,3.506,MR,medium,3,kuTZjru3VL
left,images/base/3_a.png,images/combined/3_b_x_45_y_0_z_270.png,left,1,4.9233,MR,medium,4,kuTZjru3VL
right,images/base/11_a.png,images/combined/11_a_x_315_y_0_z_270.png,right,1,4.1935,MR,medium,5,kuTZjru3VL
right,images/base/2_a.png,images/combined/2_a_x_45_y_0_z_270.png,right,1,3.8834,MR,medium,6,kuTZjru3VL
right,images/base/5_b.png,images/combined/5_b_x_315_y_0_z_270.png,right,1,5.4741,MR,medium,7,kuTZjru3VL
left,images/base/8_a.png,images/combined/8_b_x_45_y_0_z_270.png,left,1,10.2826,MR,medium,8,kuTZjru3VL
left,images/base/13_a.png,images/combined/13_b_x_45_y_0_z_270.png,left,1,6.6495,MR,medium,9,kuTZjru3VL
left,images/base/4_b.png,images/combined/4_a_x_45_y_0_z_90.png,left,1,5.9178,MR,medium,10,kuTZjru3VL
left,images/base/7_a.png,images/combined/7_b_x_45_y_0_z_90.png,right,0,6.2505,MR,medium,11,kuTZjru3VL
left,images/base/12_b.png,images/combined/12_a_x_45_y_0_z_270.png,right,0,3.272,MR,medium,12,kuTZjru3VL
left,images/base/6_b.png,images/combined/6_a_x_45_y_0_z_270.png,left,1,2.8167,MR,medium,13,kuTZjru3VL
right,images/base/9_b.png,images/combined/9_b_x_45_y_0_z_270.png,right,1,4.151,MR,medium,14,kuTZjru3VL
left,images/base/10_b.png,images/combined/10_a_x_45_y_0_z_90.png,right,0,6.3831,MR,medium,15,kuTZjru3VL
left,images/base/14_b.png,images/combined/14_a_x_45_y_0_z_90.png,left,1,3.5231,MR,medium,16,kuTZjru3VL
left,images/base/14_a.png,images/combined/14_b_x_270_y_0_z_270.png,left,1,6.0562,MR,hard,1,kuTZjru3VL
right,images/base/3_b.png,images/combined/3_b_x_270_y_0_z_270.png,left,0,8.7248,MR,hard,2,kuTZjru3VL
right,images/base/15_b.png,images/combined/15_b_x_90_y_0_z_270.png,right,1,8.8434,MR,hard,3,kuTZjru3VL
left,images/base/5_b.png,images/combined/5_a_x_90_y_0_z_90.png,left,1,8.6177,MR,hard,4,kuTZjru3VL
right,images/base/1_a.png,images/combined/1_a_x_270_y_0_z_90.png,left,0,5.5912,MR,hard,5,kuTZjru3VL
left,images/base/16_b.png,images/combined/16_a_x_90_y_0_z_270.png,left,1,3.7877,MR,hard,6,kuTZjru3VL
right,images/base/7_a.png,images/combined/7_a_x_270_y_0_z_90.png,left,0,5.2507,MR,hard,7,kuTZjru3VL
right,images/base/11_b.png,images/combined/11_b_x_270_y_0_z_90.png,right,1,6.3834,MR,hard,8,kuTZjru3VL
left,images/base/4_a.png,images/combined/4_b_x_90_y_0_z_270.png,right,0,7.5182,MR,hard,9,kuTZjru3VL
right,images/base/2_b.png,images/combined/2_b_x_90_y_0_z_90.png,left,0,5.8507,MR,hard,10,kuTZjru3VL
left,images/base/10_a.png,images/combined/10_b_x_270_y_0_z_270.png,left,1,6.2164,MR,hard,11,kuTZjru3VL
left,images/base/9_a.png,images/combined/9_b_x_270_y_0_z_90.png,right,0,5.0175,MR,hard,12,kuTZjru3VL
left,images/base/12_a.png,images/combined/12_b_x_270_y_0_z_270.png,right,0,12.4519,MR,hard,13,kuTZjru3VL
right,images/base/8_b.png,images/combined/8_b_x_90_y_0_z_90.png,left,0,6.3571,MR,hard,14,kuTZjru3VL
left,images/base/13_b.png,images/combined/13_a_x_90_y_0_z_90.png,left,1,4.8001,MR,hard,15,kuTZjru3VL
right,images/base/6_a.png,images/combined/6_a_x_270_y_0_z_90.png,left,0,3.9896,MR,hard,16,kuTZjru3VL
left,images/base/15_b.png,images/combined/15_a_x_0_y_0_z_45.png,left,1,10.114,MR,easy,1,antN5ck5Ic
left,images/base/2_a.png,images/combined/2_b_x_0_y_0_z_45.png,left,1,14.74,MR,easy,2,antN5ck5Ic
left,images/base/13_a.png,images/combined/13_b_x_0_y_0_z_45.png,left,1,6.903,MR,easy,3,antN5ck5Ic
left,images/base/9_a.png,images/combined/9_b_x_0_y_0_z_45.png,right,0,13.744,MR,easy,4,antN5ck5Ic
right,images/base/6_b.png,images/combined/6_b_x_0_y_0_z_45.png,right,1,6.516,MR,easy,5,antN5ck5Ic
left,images/base/5_a.png,images/combined/5_b_x_0_y_0_z_45.png,left,1,4.92,MR,easy,6,antN5ck5Ic
right,images/base/16_a.png,images/combined/16_a_x_0_y_0_z_315.png,right,1,6.85,MR,easy,7,antN5ck5Ic
right,images/base/12_a.png,images/combined/12_a_x_0_y_0_z_315.png,right,1,7.213,MR,easy,8,antN5ck5Ic
left,images/base/7_a.png,images/combined/7_b_x_0_y_0_z_315.png,left,1,2.336,MR,easy,9,antN5ck5Ic
left,images/base/10_a.png,images/combined/10_b_x_0_y_0_z_315.png,left,1,6.165,MR,easy,10,antN5ck5Ic
left,images/base/3_b.png,images/combined/3_a_x_0_y_0_z_315.png,left,1,4.031,MR,easy,11,antN5ck5Ic
left,images/base/11_a.png,images/combined/11_b_x_0_y_0_z_315.png,left,1,27.052,MR,easy,12,antN5ck5Ic
right,images/base/14_b.png,images/combined/14_b_x_0_y_0_z_45.png,right,1,3.511,MR,easy,13,antN5ck5Ic
left,images/base/8_a.png,images/combined/8_b_x_0_y_0_z_45.png,left,1,13.975,MR,easy,14,antN5ck5Ic
left,images/base/4_b.png,images/combined/4_a_x_0_y_0_z_315.png,left,1,3.581,MR,easy,15,antN5ck5Ic
right,images/base/1_a.png,images/combined/1_a_x_0_y_0_z_315.png,right,1,5.074,MR,easy,16,antN5ck5Ic
left,images/base/5_a.png,images/combined/5_b_x_45_y_0_z_90.png,right,0,6.806,MR,medium,1,antN5ck5Ic
right,images/base/6_a.png,images/combined/6_a_x_45_y_0_z_270.png,right,1,6.628,MR,medium,2,antN5ck5Ic
right,images/base/2_b.png,images/combined/2_b_x_315_y_0_z_270.png,right,1,10.647,MR,medium,3,antN5ck5Ic
right,images/base/11_b.png,images/combined/11_b_x_315_y_0_z_270.png,left,0,7.026,MR,medium,4,antN5ck5Ic
right,images/base/10_a.png,images/combined/10_a_x_45_y_0_z_270.png,right,1,4.251,MR,medium,5,antN5ck5Ic
left,images/base/3_a.png,images/combined/3_b_x_45_y_0_z_90.png,left,1,5.198,MR,medium,6,antN5ck5Ic
right,images/base/4_a.png,images/combined/4_a_x_45_y_0_z_270.png,right,1,2.862,MR,medium,7,antN5ck5Ic
right,images/base/8_b.png,images/combined/8_b_x_45_y_0_z_90.png,left,0,4.549,MR,medium,8,antN5ck5Ic
left,images/base/9_b.png,images/combined/9_a_x_45_y_0_z_90.png,left,1,10.928,MR,medium,9,antN5ck5Ic
left,images/base/14_b.png,images/combined/14_a_x_315_y_0_z_90.png,left,1,9.878,MR,medium,10,antN5ck5Ic
right,images/base/15_b.png,images/combined/15_b_x_45_y_0_z_270.png,right,1,4.332,MR,medium,11,antN5ck5Ic
right,images/base/13_b.png,images/combined/13_b_x_315_y_0_z_90.png,right,1,2.919,MR,medium,12,antN5ck5Ic
left,images/base/1_b.png,images/combined/1_a_x_45_y_0_z_270.png,left,1,3.71,MR,medium,13,antN5ck5Ic
right,images/base/7_b.png,images/combined/7_b_x_315_y_0_z_270.png,left,0,3.267,MR,medium,14,antN5ck5Ic
left,images/base/12_a.png,images/combined/12_b_x_45_y_0_z_90.png,left,1,6.059,MR,medium,15,antN5ck5Ic
right,images/base/16_b.png,images/combined/16_b_x_45_y_0_z_90.png,right,1,10.81,MR,medium,16,antN5ck5Ic
left,images/base/3_b.png,images/combined/3_a_x_270_y_0_z_270.png,left,1,6.304,MR,hard,1,antN5ck5Ic
right,images/base/14_b.png,images/combined/14_b_x_270_y_0_z_270.png,right,1,4.434,MR,hard,2,antN5ck5Ic
left,images/base/5_b.png,images/combined/5_a_x_270_y_0_z_270.png,left,1,7.75,MR,hard,3,antN5ck5Ic
left,images/base/2_a.png,images/combined/2_b_x_270_y_0_z_90.png,left,1,8.694,MR,hard,4,antN5ck5Ic
left,images/base/13_a.png,images/combined/13_b_x_270_y_0_z_270.png,left,1,9.689,MR,hard,5,antN5ck5Ic
right,images/base/15_b.png,images/combined/15_b_x_270_y_0_z_270.png,right,1,21.333,MR,hard,6,antN5ck5Ic
right,images/base/10_a.png,images/combined/10_a_x_270_y_0_z_270.png,right,1,6.434,MR,hard,7,antN5ck5Ic
right,images/base/7_b.png,images/combined/7_b_x_90_y_0_z_270.png,right,1,27.015,MR,hard,8,antN5ck5Ic
right,images/base/12_b.png,images/combined/12_b_x_270_y_0_z_270.png,right,1,9.842,MR,hard,9,antN5ck5Ic
left,images/base/8_b.png,images/combined/8_a_x_270_y_0_z_270.png,left,1,11.784,MR,hard,10,antN5ck5Ic
right,images/base/16_a.png,images/combined/16_a_x_90_y_0_z_90.png,right,1,8.409,MR,hard,11,antN5ck5Ic
left,images/base/1_b.png,images/combined/1_a_x_90_y_0_z_270.png,left,1,14.511,MR,hard,12,antN5ck5Ic
left,images/base/11_b.png,images/combined/11_a_x_270_y_0_z_90.png,left,1,8.436,MR,hard,13,antN5ck5Ic
left,images/base/4_b.png,images/combined/4_a_x_90_y_0_z_270.png,left,1,12.144,MR,hard,14,antN5ck5Ic
right,images/base/6_b.png,images/combined/6_b_x_90_y_0_z_270.png,right,1,10.706,MR,hard,15,antN5ck5Ic
right,images/base/9_b.png,images/combined/9_b_x_270_y_0_z_90.png,right,1,12.778,MR,hard,16,antN5ck5Ic
right,images/base/4_b.png,images/combined/4_b_x_0_y_0_z_315.png,right,1,2.9524,MR,easy,1,lqSj6DxkoP
right,images/base/16_b.png,images/combined/16_b_x_0_y_0_z_315.png,right,1,3.8346,MR,easy,2,lqSj6DxkoP
right,images/base/11_b.png,images/combined/11_b_x_0_y_0_z_45.png,right,1,3.6981,MR,easy,3,lqSj6DxkoP
right,images/base/1_a.png,images/combined/1_a_x_0_y_0_z_315.png,right,1,3.7466,MR,easy,4,lqSj6DxkoP
right,images/base/12_a.png,images/combined/12_a_x_0_y_0_z_45.png,right,1,5.6425,MR,easy,5,lqSj6DxkoP
right,images/base/15_b.png,images/combined/15_b_x_0_y_0_z_45.png,right,1,6.8977,MR,easy,6,lqSj6DxkoP
left,images/base/7_b.png,images/combined/7_a_x_0_y_0_z_315.png,right,0,5.2645,MR,easy,7,lqSj6DxkoP
right,images/base/6_b.png,images/combined/6_b_x_0_y_0_z_45.png,right,1,8.5133,MR,easy,8,lqSj6DxkoP
right,images/base/10_b.png,images/combined/10_b_x_0_y_0_z_315.png,right,1,9.7024,MR,easy,9,lqSj6DxkoP
right,images/base/8_a.png,images/combined/8_a_x_0_y_0_z_45.png,right,1,5.7336,MR,easy,10,lqSj6DxkoP
right,images/base/3_b.png,images/combined/3_b_x_0_y_0_z_45.png,right,1,3.5047,MR,easy,11,lqSj6DxkoP
right,images/base/13_b.png,images/combined/13_b_x_0_y_0_z_45.png,right,1,3.3263,MR,easy,12,lqSj6DxkoP
left,images/base/14_b.png,images/combined/14_a_x_0_y_0_z_45.png,left,1,9.7742,MR,easy,13,lqSj6DxkoP
left,images/base/2_a.png,images/combined/2_b_x_0_y_0_z_315.png,left,1,7.5755,MR,easy,14,lqSj6DxkoP
left,images/base/9_b.png,images/combined/9_a_x_0_y_0_z_315.png,right,0,6.3665,MR,easy,15,lqSj6DxkoP
left,images/base/5_b.png,images/combined/5_a_x_0_y_0_z_45.png,left,1,6.0248,MR,easy,16,lqSj6DxkoP
left,images/base/14_a.png,images/combined/14_b_x_45_y_0_z_90.png,left,1,6.5801,MR,medium,1,lqSj6DxkoP
right,images/base/5_a.png,images/combined/5_a_x_45_y_0_z_90.png,right,1,6.0718,MR,medium,2,lqSj6DxkoP
right,images/base/11_b.png,images/combined/11_b_x_45_y_0_z_90.png,right,1,8.6512,MR,medium,3,lqSj6DxkoP
left,images/base/13_b.png,images/combined/13_a_x_315_y_0_z_270.png,left,1,5.8111,MR,medium,4,lqSj6DxkoP
left,images/base/2_b.png,images/combined/2_a_x_45_y_0_z_90.png,left,1,10.8252,MR,medium,5,lqSj6DxkoP
left,images/base/4_a.png,images/combined/4_b_x_45_y_0_z_90.png,left,1,9.1014,MR,medium,6,lqSj6DxkoP
right,images/base/3_a.png,images/combined/3_a_x_45_y_0_z_270.png,right,1,8.7677,MR,medium,7,lqSj6DxkoP
right,images/base/6_b.png,images/combined/6_b_x_45_y_0_z_90.png,right,1,7.8829,MR,medium,8,lqSj6DxkoP
left,images/base/10_a.png,images/combined/10_b_x_315_y_0_z_90.png,left,1,39.531,MR,medium,9,lqSj6DxkoP
left,images/base/8_b.png,images/combined/8_a_x_45_y_0_z_270.png,left,1,9.3886,MR,medium,10,lqSj6DxkoP
right,images/base/12_b.png,images/combined/12_b_x_315_y_0_z_270.png,right,1,8.4141,MR,medium,11,lqSj6DxkoP
left,images/base/1_a.png,images/combined/1_b_x_45_y_0_z_270.png,left,1,22.7356,MR,medium,12,lqSj6DxkoP
right,images/base/9_b.png,images/combined/9_b_x_45_y_0_z_90.png,right,1,10.1384,MR,medium,13,lqSj6DxkoP
right,images/base/15_a.png,images/combined/15_a_x_315_y_0_z_90.png,left,0,11.3317,MR,medium,14,lqSj6DxkoP
right,images/base/7_b.png,images/combined/7_b_x_45_y_0_z_90.png,left,0,13.31,MR,medium,15,lqSj6DxkoP
right,images/base/16_a.png,images/combined/16_a_x_315_y_0_z_90.png,left,0,3.4603,MR,medium,16,lqSj6DxkoP
left,images/base/11_a.png,images/combined/11_b_x_270_y_0_z_90.png,left,1,10.1423,MR,hard,1,lqSj6DxkoP
right,images/base/16_a.png,images/combined/16_a_x_90_y_0_z_270.png,left,0,13.3493,MR,hard,2,lqSj6DxkoP
left,images/base/8_a.png,images/combined/8_b_x_270_y_0_z_90.png,left,1,27.0341,MR,hard,3,lqSj6DxkoP
right,images/base/6_b.png,images/combined/6_b_x_270_y_0_z_90.png,right,1,5.4186,MR,hard,4,lqSj6DxkoP
left,images/base/12_a.png,images/combined/12_b_x_270_y_0_z_90.png,left,1,22.518,MR,hard,5,lqSj6DxkoP
right,images/base/1_b.png,images/combined/1_b_x_270_y_0_z_270.png,left,0,10.5658,MR,hard,6,lqSj6DxkoP
right,images/base/3_a.png,images/combined/3_a_x_90_y_0_z_90.png,left,0,17.6033,MR,hard,7,lqSj6DxkoP
left,images/base/5_b.png,images/combined/5_a_x_270_y_0_z_90.png,left,1,11.401,MR,hard,8,lqSj6DxkoP
left,images/base/2_a.png,images/combined/2_b_x_90_y_0_z_90.png,left,1,28.5169,MR,hard,9,lqSj6DxkoP
right,images/base/9_b.png,images/combined/9_b_x_270_y_0_z_270.png,right,1,33.8497,MR,hard,10,lqSj6DxkoP
left,images/base/10_a.png,images/combined/10_b_x_90_y_0_z_90.png,left,1,14.8672,MR,hard,11,lqSj6DxkoP
right,images/base/4_a.png,images/combined/4_a_x_270_y_0_z_90.png,right,1,9.6503,MR,hard,12,lqSj6DxkoP
right,images/base/7_b.png,images/combined/7_b_x_90_y_0_z_270.png,right,1,29.357,MR,hard,13,lqSj6DxkoP
right,images/base/15_b.png,images/combined/15_b_x_90_y_0_z_90.png,right,1,7.792,MR,hard,14,lqSj6DxkoP
right,images/base/14_b.png,images/combined/14_b_x_90_y_0_z_90.png,right,1,31.2194,MR,hard,15,lqSj6DxkoP
right,images/base/13_a.png,images/combined/13_a_x_270_y_0_z_90.png,right,1,5.7001,MR,hard,16,lqSj6DxkoP
left,images/base/13_a.png,images/combined/13_b_x_0_y_0_z_45.png,left,1,3.2172,MR,easy,1,urmN2MGqMI
right,images/base/11_a.png,images/combined/11_a_x_0_y_0_z_315.png,right,1,4.4665,MR,easy,2,urmN2MGqMI
right,images/base/5_a.png,images/combined/5_a_x_0_y_0_z_315.png,right,1,3.2691,MR,easy,3,urmN2MGqMI
left,images/base/8_a.png,images/combined/8_b_x_0_y_0_z_315.png,left,1,2.9671,MR,easy,4,urmN2MGqMI
left,images/base/1_a.png,images/combined/1_b_x_0_y_0_z_315.png,left,1,5.7157,MR,easy,5,urmN2MGqMI
right,images/base/2_a.png,images/combined/2_a_x_0_y_0_z_45.png,right,1,4.1949,MR,easy,6,urmN2MGqMI
right,images/base/6_a.png,images/combined/6_a_x_0_y_0_z_45.png,right,1,3.1053,MR,easy,7,urmN2MGqMI
left,images/base/12_a.png,images/combined/12_b_x_0_y_0_z_315.png,left,1,4.992,MR,easy,8,urmN2MGqMI
right,images/base/16_b.png,images/combined/16_b_x_0_y_0_z_45.png,right,1,3.2399,MR,easy,9,urmN2MGqMI
left,images/base/9_b.png,images/combined/9_a_x_0_y_0_z_45.png,left,1,4.032,MR,easy,10,urmN2MGqMI
left,images/base/10_b.png,images/combined/10_a_x_0_y_0_z_315.png,left,1,6.0685,MR,easy,11,urmN2MGqMI
left,images/base/4_a.png,images/combined/4_b_x_0_y_0_z_45.png,left,1,2.4164,MR,easy,12,urmN2MGqMI
left,images/base/15_b.png,images/combined/15_a_x_0_y_0_z_45.png,left,1,2.001,MR,easy,13,urmN2MGqMI
left,images/base/7_a.png,images/combined/7_b_x_0_y_0_z_45.png,left,1,4.1736,MR,easy,14,urmN2MGqMI
left,images/base/3_a.png,images/combined/3_b_x_0_y_0_z_315.png,left,1,3.7174,MR,easy,15,urmN2MGqMI
right,images/base/14_a.png,images/combined/14_a_x_0_y_0_z_315.png,right,1,2.3591,MR,easy,16,urmN2MGqMI
left,images/base/3_a.png,images/combined/3_b_x_315_y_0_z_270.png,left,1,4.652,MR,medium,1,urmN2MGqMI
right,images/base/7_a.png,images/combined/7_a_x_315_y_0_z_90.png,right,1,3.4601,MR,medium,2,urmN2MGqMI
right,images/base/9_b.png,images/combined/9_b_x_315_y_0_z_270.png,right,1,3.537,MR,medium,3,urmN2MGqMI
right,images/base/16_a.png,images/combined/16_a_x_315_y_0_z_90.png,right,1,6.7093,MR,medium,4,urmN2MGqMI
right,images/base/6_a.png,images/combined/6_a_x_315_y_0_z_90.png,right,1,2.9271,MR,medium,5,urmN2MGqMI
left,images/base/10_a.png,images/combined/10_b_x_315_y_0_z_270.png,left,1,4.0014,MR,medium,6,urmN2MGqMI
right,images/base/12_b.png,images/combined/12_b_x_45_y_0_z_90.png,right,1,6.7128,MR,medium,7,urmN2MGqMI
left,images/base/1_b.png,images/combined/1_a_x_45_y_0_z_90.png,left,1,3.6343,MR,medium,8,urmN2MGqMI
right,images/base/4_a.png,images/combined/4_a_x_315_y_0_z_270.png,right,1,4.5731,MR,medium,9,urmN2MGqMI
right,images/base/11_b.png,images/combined/11_b_x_315_y_0_z_90.png,right,1,5.3106,MR,medium,10,urmN2MGqMI
right,images/base/13_a.png,images/combined/13_a_x_315_y_0_z_90.png,right,1,3.1444,MR,medium,11,urmN2MGqMI
left,images/base/14_a.png,images/combined/14_b_x_45_y_0_z_90.png,left,1,3.5532,MR,medium,12,urmN2MGqMI
right,images/base/5_a.png,images/combined/5_a_x_45_y_0_z_90.png,right,1,3.5006,MR,medium,13,urmN2MGqMI
right,images/base/15_a.png,images/combined/15_a_x_315_y_0_z_90.png,left,0,5.035,MR,medium,14,urmN2MGqMI
left,images/base/8_a.png,images/combined/8_b_x_315_y_0_z_270.png,right,0,5.4614,MR,medium,15,urmN2MGqMI
left,images/base/2_a.png,images/combined/2_b_x_315_y_0_z_90.png,left,1,7.4565,MR,medium,16,urmN2MGqMI
right,images/base/2_a.png,images/combined/2_a_x_90_y_0_z_90.png,right,1,5.1431,MR,hard,1,urmN2MGqMI
right,images/base/7_b.png,images/combined/7_b_x_270_y_0_z_90.png,right,1,5.2619,MR,hard,2,urmN2MGqMI
right,images/base/3_b.png,images/combined/3_b_x_90_y_0_z_270.png,left,0,5.3175,MR,hard,3,urmN2MGqMI
right,images/base/6_a.png,images/combined/6_a_x_90_y_0_z_90.png,right,1,4.1749,MR,hard,4,urmN2MGqMI
left,images/base/1_a.png,images/combined/1_b_x_90_y_0_z_270.png,right,0,10.1529,MR,hard,5,urmN2MGqMI
left,images/base/13_a.png,images/combined/13_b_x_270_y_0_z_90.png,left,1,8.1746,MR,hard,6,urmN2MGqMI
right,images/base/16_b.png,images/combined/16_b_x_90_y_0_z_90.png,right,1,11.5113,MR,hard,7,urmN2MGqMI
left,images/base/5_a.png,images/combined/5_b_x_270_y_0_z_270.png,left,1,10.7381,MR,hard,8,urmN2MGqMI
right,images/base/12_a.png,images/combined/12_a_x_90_y_0_z_90.png,right,1,16.0349,MR,hard,9,urmN2MGqMI
left,images/base/9_a.png,images/combined/9_b_x_270_y_0_z_270.png,left,1,11.3006,MR,hard,10,urmN2MGqMI
right,images/base/10_a.png,images/combined/10_a_x_90_y_0_z_90.png,right,1,4.175,MR,hard,11,urmN2MGqMI
right,images/base/15_b.png,images/combined/15_b_x_270_y_0_z_90.png,right,1,9.4525,MR,hard,12,urmN2MGqMI
right,images/base/14_b.png,images/combined/14_b_x_90_y_0_z_90.png,right,1,6.4336,MR,hard,13,urmN2MGqMI
left,images/base/8_a.png,images/combined/8_b_x_270_y_0_z_90.png,left,1,7.6257,MR,hard,14,urmN2MGqMI
right,images/base/11_a.png,images/combined/11_a_x_270_y_0_z_270.png,right,1,6.9195,MR,hard,15,urmN2MGqMI
left,images/base/4_b.png,images/combined/4_a_x_270_y_0_z_270.png,right,0,4.6002,MR,hard,16,urmN2MGqMI
right,images/base/12_b.png,images/combined/12_b_x_0_y_0_z_315.png,right,1,9.3485,MR,easy,1,d51zamtky2
left,images/base/2_a.png,images/combined/2_b_x_0_y_0_z_45.png,left,1,2.63,MR,easy,2,d51zamtky2
left,images/base/5_a.png,images/combined/5_b_x_0_y_0_z_45.png,left,1,2.1065,MR,easy,3,d51zamtky2
left,images/base/4_b.png,images/combined/4_a_x_0_y_0_z_315.png,left,1,2.37,MR,easy,4,d51zamtky2
left,images/base/11_b.png,images/combined/11_a_x_0_y_0_z_315.png,left,1,2.0731,MR,easy,5,d51zamtky2
right,images/base/7_a.png,images/combined/7_a_x_0_y_0_z_315.png,right,1,3.4414,MR,easy,6,d51zamtky2
left,images/base/8_a.png,images/combined/8_b_x_0_y_0_z_315.png,left,1,3.0447,MR,easy,7,d51zamtky2
right,images/base/3_b.png,images/combined/3_b_x_0_y_0_z_315.png,right,1,1.7624,MR,easy,8,d51zamtky2
right,images/base/13_a.png,images/combined/13_a_x_0_y_0_z_315.png,left,0,1.8521,MR,easy,9,d51zamtky2
right,images/base/6_a.png,images/combined/6_a_x_0_y_0_z_315.png,right,1,3.2844,MR,easy,10,d51zamtky2
left,images/base/10_a.png,images/combined/10_b_x_0_y_0_z_315.png,left,1,3.0649,MR,easy,11,d51zamtky2
left,images/base/15_a.png,images/combined/15_b_x_0_y_0_z_45.png,left,1,4.9963,MR,easy,12,d51zamtky2
right,images/base/9_a.png,images/combined/9_a_x_0_y_0_z_45.png,right,1,3.1363,MR,easy,13,d51zamtky2
left,images/base/14_a.png,images/combined/14_b_x_0_y_0_z_315.png,left,1,2.2361,MR,easy,14,d51zamtky2
left,images/base/1_b.png,images/combined/1_a_x_0_y_0_z_45.png,right,0,5.1679,MR,easy,15,d51zamtky2
right,images/base/16_a.png,images/combined/16_a_x_0_y_0_z_315.png,right,1,5.3715,MR,easy,16,d51zamtky2
left,images/base/7_a.png,images/combined/7_b_x_45_y_0_z_90.png,left,1,6.0715,MR,medium,1,d51zamtky2
left,images/base/14_b.png,images/combined/14_a_x_45_y_0_z_90.png,left,1,2.8474,MR,medium,2,d51zamtky2
right,images/base/11_a.png,images/combined/11_a_x_45_y_0_z_270.png,right,1,4.1766,MR,medium,3,d51zamtky2
left,images/base/9_b.png,images/combined/9_a_x_315_y_0_z_90.png,left,1,8.9762,MR,medium,4,d51zamtky2
left,images/base/6_b.png,images/combined/6_a_x_45_y_0_z_90.png,left,1,5.0663,MR,medium,5,d51zamtky2
right,images/base/4_a.png,images/combined/4_a_x_45_y_0_z_90.png,right,1,2.3966,MR,medium,6,d51zamtky2
left,images/base/5_a.png,images/combined/5_b_x_45_y_0_z_90.png,left,1,5.9075,MR,medium,7,d51zamtky2
left,images/base/12_a.png,images/combined/12_b_x_315_y_0_z_270.png,left,1,5.1836,MR,medium,8,d51zamtky2
right,images/base/1_a.png,images/combined/1_a_x_45_y_0_z_270.png,right,1,6.0228,MR,medium,9,d51zamtky2
right,images/base/15_a.png,images/combined/15_a_x_45_y_0_z_270.png,right,1,7.799,MR,medium,10,d51zamtky2
left,images/base/16_b.png,images/combined/16_a_x_45_y_0_z_90.png,left,1,8.8716,MR,medium,11,d51zamtky2
left,images/base/13_a.png,images/combined/13_b_x_315_y_0_z_270.png,left,1,3.0292,MR,medium,12,d51zamtky2
left,images/base/10_b.png,images/combined/10_a_x_45_y_0_z_90.png,left,1,2.3845,MR,medium,13,d51zamtky2
left,images/base/2_b.png,images/combined/2_a_x_315_y_0_z_270.png,left,1,4.3357,MR,medium,14,d51zamtky2
right,images/base/8_a.png,images/combined/8_a_x_315_y_0_z_270.png,right,1,4.2232,MR,medium,15,d51zamtky2
right,images/base/3_a.png,images/combined/3_a_x_45_y_0_z_90.png,right,1,3.0384,MR,medium,16,d51zamtky2
right,images/base/12_b.png,images/combined/12_b_x_270_y_0_z_270.png,right,1,5.0966,MR,hard,1,d51zamtky2
left,images/base/2_b.png,images/combined/2_a_x_90_y_0_z_270.png,left,1,5.8611,MR,hard,2,d51zamtky2
right,images/base/4_a.png,images/combined/4_a_x_270_y_0_z_270.png,right,1,8.6339,MR,hard,3,d51zamtky2
left,images/base/7_a.png,images/combined/7_b_x_90_y_0_z_270.png,left,1,4.129,MR,hard,4,d51zamtky2
left,images/base/14_a.png,images/combined/14_b_x_270_y_0_z_270.png,left,1,5.6001,MR,hard,5,d51zamtky2
left,images/base/15_b.png,images/combined/15_a_x_90_y_0_z_90.png,left,1,10.6179,MR,hard,6,d51zamtky2
left,images/base/3_a.png,images/combined/3_b_x_90_y_0_z_270.png,left,1,6.6956,MR,hard,7,d51zamtky2
left,images/base/8_b.png,images/combined/8_a_x_90_y_0_z_270.png,left,1,13.7211,MR,hard,8,d51zamtky2
left,images/base/10_a.png,images/combined/10_b_x_270_y_0_z_270.png,left,1,9.6025,MR,hard,9,d51zamtky2
left,images/base/13_a.png,images/combined/13_b_x_270_y_0_z_270.png,left,1,10.1159,MR,hard,10,d51zamtky2
right,images/base/9_a.png,images/combined/9_a_x_270_y_0_z_90.png,right,1,8.3069,MR,hard,11,d51zamtky2
right,images/base/1_a.png,images/combined/1_a_x_270_y_0_z_270.png,right,1,2.9132,MR,hard,12,d51zamtky2
right,images/base/11_b.png,images/combined/11_b_x_90_y_0_z_270.png,right,1,7.4927,MR,hard,13,d51zamtky2
left,images/base/5_b.png,images/combined/5_a_x_90_y_0_z_270.png,left,1,13.1634,MR,hard,14,d51zamtky2
left,images/base/6_b.png,images/combined/6_a_x_90_y_0_z_90.png,left,1,9.6121,MR,hard,15,d51zamtky2
left,images/base/16_b.png,images/combined/16_a_x_270_y_0_z_270.png,left,1,28.9494,MR,hard,16,d51zamtky2
right,images/base/7_b.png,images/combined/7_b_x_0_y_0_z_315.png,right,1,4.0231,MR,easy,1,EgEJAn9pKN
right,images/base/9_b.png,images/combined/9_b_x_0_y_0_z_45.png,left,0,2.7823,MR,easy,2,EgEJAn9pKN
right,images/base/3_b.png,images/combined/3_b_x_0_y_0_z_315.png,right,1,3.2501,MR,easy,3,EgEJAn9pKN
right,images/base/5_b.png,images/combined/5_b_x_0_y_0_z_315.png,right,1,4.0256,MR,easy,4,EgEJAn9pKN
right,images/base/1_a.png,images/combined/1_a_x_0_y_0_z_45.png,left,0,2.0574,MR,easy,5,EgEJAn9pKN
left,images/base/15_a.png,images/combined/15_b_x_0_y_0_z_315.png,left,1,3.2578,MR,easy,6,EgEJAn9pKN
right,images/base/8_b.png,images/combined/8_b_x_0_y_0_z_45.png,right,1,2.1793,MR,easy,7,EgEJAn9pKN
left,images/base/4_a.png,images/combined/4_b_x_0_y_0_z_315.png,left,1,2.4723,MR,easy,8,EgEJAn9pKN
left,images/base/12_b.png,images/combined/12_a_x_0_y_0_z_315.png,right,0,4.8743,MR,easy,9,EgEJAn9pKN
right,images/base/11_a.png,images/combined/11_a_x_0_y_0_z_315.png,right,1,9.7598,MR,easy,10,EgEJAn9pKN
left,images/base/16_b.png,images/combined/16_a_x_0_y_0_z_315.png,left,1,4.4401,MR,easy,11,EgEJAn9pKN
right,images/base/6_b.png,images/combined/6_b_x_0_y_0_z_45.png,right,1,2.8149,MR,easy,12,EgEJAn9pKN
left,images/base/14_b.png,images/combined/14_a_x_0_y_0_z_45.png,left,1,1.9243,MR,easy,13,EgEJAn9pKN
left,images/base/13_a.png,images/combined/13_b_x_0_y_0_z_315.png,left,1,3.399,MR,easy,14,EgEJAn9pKN
right,images/base/2_a.png,images/combined/2_a_x_0_y_0_z_315.png,right,1,2.382,MR,easy,15,EgEJAn9pKN
right,images/base/10_a.png,images/combined/10_a_x_0_y_0_z_315.png,right,1,3.5189,MR,easy,16,EgEJAn9pKN
right,images/base/9_a.png,images/combined/9_a_x_315_y_0_z_270.png,left,0,4.208,MR,medium,1,EgEJAn9pKN
right,images/base/4_a.png,images/combined/4_a_x_45_y_0_z_90.png,right,1,3.6568,MR,medium,2,EgEJAn9pKN
left,images/base/14_b.png,images/combined/14_a_x_315_y_0_z_270.png,left,1,3.8644,MR,medium,3,EgEJAn9pKN
left,images/base/1_b.png,images/combined/1_a_x_45_y_0_z_90.png,left,1,2.5434,MR,medium,4,EgEJAn9pKN
left,images/base/16_b.png,images/combined/16_a_x_45_y_0_z_270.png,left,1,3.9358,MR,medium,5,EgEJAn9pKN
left,images/base/5_b.png,images/combined/5_a_x_45_y_0_z_90.png,right,0,2.3952,MR,medium,6,EgEJAn9pKN
left,images/base/8_b.png,images/combined/8_a_x_45_y_0_z_270.png,left,1,3.2459,MR,medium,7,EgEJAn9pKN
left,images/base/11_b.png,images/combined/11_a_x_45_y_0_z_270.png,right,0,1.2145,MR,medium,8,EgEJAn9pKN
left,images/base/7_a.png,images/combined/7_b_x_315_y_0_z_90.png,left,1,2.0072,MR,medium,9,EgEJAn9pKN
left,images/base/6_a.png,images/combined/6_b_x_45_y_0_z_270.png,left,1,3.5657,MR,medium,10,EgEJAn9pKN
left,images/base/10_a.png,images/combined/10_b_x_45_y_0_z_90.png,left,1,1.8645,MR,medium,11,EgEJAn9pKN
right,images/base/15_b.png,images/combined/15_b_x_45_y_0_z_270.png,left,0,1.9355,MR,medium,12,EgEJAn9pKN
left,images/base/2_b.png,images/combined/2_a_x_315_y_0_z_270.png,left,1,7.1666,MR,medium,13,EgEJAn9pKN
left,images/base/13_b.png,images/combined/13_a_x_315_y_0_z_270.png,left,1,4.1325,MR,medium,14,EgEJAn9pKN
right,images/base/3_a.png,images/combined/3_a_x_45_y_0_z_90.png,left,0,3.7458,MR,medium,15,EgEJAn9pKN
left,images/base/12_a.png,images/combined/12_b_x_45_y_0_z_270.png,right,0,3.4931,MR,medium,16,EgEJAn9pKN
left,images/base/10_b.png,images/combined/10_a_x_270_y_0_z_90.png,left,1,2.9857,MR,hard,1,EgEJAn9pKN
left,images/base/11_a.png,images/combined/11_b_x_90_y_0_z_270.png,left,1,4.9294,MR,hard,2,EgEJAn9pKN
left,images/base/15_a.png,images/combined/15_b_x_270_y_0_z_90.png,right,0,2.9345,MR,hard,3,EgEJAn9pKN
left,images/base/16_b.png,images/combined/16_a_x_90_y_0_z_270.png,left,1,4.6344,MR,hard,4,EgEJAn9pKN
left,images/base/6_a.png,images/combined/6_b_x_270_y_0_z_90.png,left,1,3.1749,MR,hard,5,EgEJAn9pKN
right,images/base/7_b.png,images/combined/7_b_x_90_y_0_z_90.png,right,1,6.9515,MR,hard,6,EgEJAn9pKN
right,images/base/14_b.png,images/combined/14_b_x_90_y_0_z_90.png,right,1,5.3811,MR,hard,7,EgEJAn9pKN
left,images/base/1_b.png,images/combined/1_a_x_90_y_0_z_270.png,left,1,2.914,MR,hard,8,EgEJAn9pKN
left,images/base/12_a.png,images/combined/12_b_x_270_y_0_z_270.png,left,1,4.3605,MR,hard,9,EgEJAn9pKN
right,images/base/8_a.png,images/combined/8_a_x_90_y_0_z_270.png,left,0,4.7752,MR,hard,10,EgEJAn9pKN
right,images/base/5_b.png,images/combined/5_b_x_90_y_0_z_270.png,left,0,4.75,MR,hard,11,EgEJAn9pKN
right,images/base/3_a.png,images/combined/3_a_x_270_y_0_z_270.png,right,1,2.9661,MR,hard,12,EgEJAn9pKN
right,images/base/4_a.png,images/combined/4_a_x_90_y_0_z_270.png,left,0,4.0619,MR,hard,13,EgEJAn9pKN
right,images/base/2_b.png,images/combined/2_b_x_270_y_0_z_90.png,right,1,2.1999,MR,hard,14,EgEJAn9pKN
left,images/base/13_a.png,images/combined/13_b_x_90_y_0_z_270.png,left,1,1.1986,MR,hard,15,EgEJAn9pKN
left,images/base/9_b.png,images/combined/9_a_x_270_y_0_z_90.png,right,0,4.015,MR,hard,16,EgEJAn9pKN
right,images/base/11_b.png,images/combined/11_b_x_0_y_0_z_45.png,right,1,5.0664,MR,easy,1,W3y75sVKt1
right,images/base/7_a.png,images/combined/7_a_x_0_y_0_z_315.png,right,1,3.3877,MR,easy,2,W3y75sVKt1
left,images/base/4_a.png,images/combined/4_b_x_0_y_0_z_45.png,left,1,11.8666,MR,easy,3,W3y75sVKt1
right,images/base/16_a.png,images/combined/16_a_x_0_y_0_z_45.png,right,1,4.0516,MR,easy,4,W3y75sVKt1
left,images/base/10_b.png,images/combined/10_a_x_0_y_0_z_45.png,left,1,8.1175,MR,easy,5,W3y75sVKt1
right,images/base/3_a.png,images/combined/3_a_x_0_y_0_z_315.png,right,1,2.74,MR,easy,6,W3y75sVKt1
right,images/base/8_a.png,images/combined/8_a_x_0_y_0_z_315.png,right,1,3.2354,MR,easy,7,W3y75sVKt1
left,images/base/6_a.png,images/combined/6_b_x_0_y_0_z_45.png,left,1,4.4847,MR,easy,8,W3y75sVKt1
left,images/base/9_a.png,images/combined/9_b_x_0_y_0_z_45.png,left,1,4.939,MR,easy,9,W3y75sVKt1
right,images/base/5_b.png,images/combined/5_b_x_0_y_0_z_315.png,right,1,3.1598,MR,easy,10,W3y75sVKt1
right,images/base/15_b.png,images/combined/15_b_x_0_y_0_z_315.png,right,1,2.283,MR,easy,11,W3y75sVKt1
right,images/base/1_a.png,images/combined/1_a_x_0_y_0_z_315.png,right,1,2.3797,MR,easy,12,W3y75sVKt1
left,images/base/13_a.png,images/combined/13_b_x_0_y_0_z_45.png,left,1,2.4499,MR,easy,13,W3y75sVKt1
right,images/base/12_a.png,images/combined/12_a_x_0_y_0_z_315.png,right,1,2.7825,MR,easy,14,W3y75sVKt1
left,images/base/2_a.png,images/combined/2_b_x_0_y_0_z_45.png,left,1,3.3892,MR,easy,15,W3y75sVKt1
right,images/base/14_a.png,images/combined/14_a_x_0_y_0_z_45.png,right,1,2.4025,MR,easy,16,W3y75sVKt1
left,images/base/12_a.png,images/combined/12_b_x_45_y_0_z_270.png,left,1,28.339,MR,medium,1,W3y75sVKt1
right,images/base/4_b.png,images/combined/4_b_x_315_y_0_z_90.png,right,1,6.4507,MR,medium,2,W3y75sVKt1
right,images/base/11_a.png,images/combined/11_a_x_45_y_0_z_270.png,right,1,8.4014,MR,medium,3,W3y75sVKt1
right,images/base/9_b.png,images/combined/9_b_x_45_y_0_z_270.png,right,1,12.6166,MR,medium,4,W3y75sVKt1
right,images/base/16_a.png,images/combined/16_a_x_45_y_0_z_270.png,right,1,11.5974,MR,medium,5,W3y75sVKt1
left,images/base/5_b.png,images/combined/5_a_x_315_y_0_z_90.png,left,1,5.2503,MR,medium,6,W3y75sVKt1
right,images/base/7_a.png,images/combined/7_a_x_315_y_0_z_270.png,right,1,7.4671,MR,medium,7,W3y75sVKt1
right,images/base/14_a.png,images/combined/14_a_x_45_y_0_z_90.png,right,1,12.3509,MR,medium,8,W3y75sVKt1
right,images/base/6_b.png,images/combined/6_b_x_45_y_0_z_270.png,right,1,17.4959,MR,medium,9,W3y75sVKt1
left,images/base/8_a.png,images/combined/8_b_x_315_y_0_z_90.png,left,1,8.6171,MR,medium,10,W3y75sVKt1
left,images/base/1_a.png,images/combined/1_b_x_45_y_0_z_270.png,left,1,11.7637,MR,medium,11,W3y75sVKt1
left,images/base/13_a.png,images/combined/13_b_x_45_y_0_z_90.png,left,1,10.3676,MR,medium,12,W3y75sVKt1
left,images/base/10_b.png,images/combined/10_a_x_45_y_0_z_90.png,left,1,30.0957,MR,medium,13,W3y75sVKt1
left,images/base/15_b.png,images/combined/15_a_x_315_y_0_z_270.png,left,1,15.6257,MR,medium,14,W3y75sVKt1
left,images/base/2_a.png,images/combined/2_b_x_315_y_0_z_270.png,left,1,8.915,MR,medium,15,W3y75sVKt1
right,images/base/3_b.png,images/combined/3_b_x_315_y_0_z_90.png,right,1,4.1071,MR,medium,16,W3y75sVKt1
left,images/base/10_a.png,images/combined/10_b_x_90_y_0_z_90.png,left,1,12.2667,MR,hard,1,W3y75sVKt1
left,images/base/16_b.png,images/combined/16_a_x_270_y_0_z_270.png,right,0,9.2854,MR,hard,2,W3y75sVKt1
left,images/base/13_b.png,images/combined/13_a_x_270_y_0_z_90.png,left,1,7.5811,MR,hard,3,W3y75sVKt1
left,images/base/1_b.png,images/combined/1_a_x_270_y_0_z_270.png,left,1,8.5502,MR,hard,4,W3y75sVKt1
right,images/base/3_b.png,images/combined/3_b_x_90_y_0_z_90.png,right,1,9.5983,MR,hard,5,W3y75sVKt1
left,images/base/2_b.png,images/combined/2_a_x_270_y_0_z_270.png,left,1,22.2977,MR,hard,6,W3y75sVKt1
left,images/base/14_a.png,images/combined/14_b_x_270_y_0_z_270.png,left,1,7.9862,MR,hard,7,W3y75sVKt1
right,images/base/8_b.png,images/combined/8_b_x_270_y_0_z_90.png,right,1,5.9868,MR,hard,8,W3y75sVKt1
left,images/base/9_b.png,images/combined/9_a_x_90_y_0_z_90.png,left,1,14.155,MR,hard,9,W3y75sVKt1
left,images/base/6_a.png,images/combined/6_b_x_270_y_0_z_270.png,left,1,28.8954,MR,hard,10,W3y75sVKt1
left,images/base/12_b.png,images/combined/12_a_x_270_y_0_z_90.png,left,1,5.6484,MR,hard,11,W3y75sVKt1
left,images/base/4_a.png,images/combined/4_b_x_270_y_0_z_90.png,left,1,4.475,MR,hard,12,W3y75sVKt1
left,images/base/11_b.png,images/combined/11_a_x_270_y_0_z_90.png,left,1,10.4771,MR,hard,13,W3y75sVKt1
right,images/base/5_b.png,images/combined/5_b_x_90_y_0_z_90.png,right,1,7.0825,MR,hard,14,W3y75sVKt1
left,images/base/15_b.png,images/combined/15_a_x_90_y_0_z_90.png,left,1,9.6701,MR,hard,15,W3y75sVKt1
left,images/base/7_b.png,images/combined/7_a_x_270_y_0_z_270.png,left,1,6.5828,MR,hard,16,W3y75sVKt1
right,images/base/8_b.png,images/combined/8_b_x_0_y_0_z_45.png,right,1,4.023,MR,easy,1,soqMs9Hfya
left,images/base/11_a.png,images/combined/11_b_x_0_y_0_z_315.png,left,1,4.957,MR,easy,2,soqMs9Hfya
right,images/base/3_a.png,images/combined/3_a_x_0_y_0_z_45.png,right,1,3.125,MR,easy,3,soqMs9Hfya
left,images/base/10_b.png,images/combined/10_a_x_0_y_0_z_315.png,left,1,13.043,MR,easy,4,soqMs9Hfya
right,images/base/14_b.png,images/combined/14_b_x_0_y_0_z_315.png,right,1,3.458,MR,easy,5,soqMs9Hfya
right,images/base/12_a.png,images/combined/12_a_x_0_y_0_z_315.png,right,1,11.725,MR,easy,6,soqMs9Hfya
left,images/base/4_a.png,images/combined/4_b_x_0_y_0_z_315.png,left,1,4.661,MR,easy,7,soqMs9Hfya
right,images/base/13_b.png,images/combined/13_b_x_0_y_0_z_45.png,right,1,3.524,MR,easy,8,soqMs9Hfya
left,images/base/6_b.png,images/combined/6_a_x_0_y_0_z_315.png,left,1,6.942,MR,easy,9,soqMs9Hfya
right,images/base/7_a.png,images/combined/7_a_x_0_y_0_z_45.png,right,1,5.491,MR,easy,10,soqMs9Hfya
right,images/base/16_b.png,images/combined/16_b_x_0_y_0_z_45.png,right,1,3.241,MR,easy,11,soqMs9Hfya
right,images/base/2_b.png,images/combined/2_b_x_0_y_0_z_315.png,right,1,5.376,MR,easy,12,soqMs9Hfya
right,images/base/5_a.png,images/combined/5_a_x_0_y_0_z_45.png,right,1,4.172,MR,easy,13,soqMs9Hfya
left,images/base/9_a.png,images/combined/9_b_x_0_y_0_z_45.png,left,1,4.777,MR,easy,14,soqMs9Hfya
left,images/base/15_a.png,images/combined/15_b_x_0_y_0_z_45.png,left,1,14.741,MR,easy,15,soqMs9Hfya
right,images/base/1_a.png,images/combined/1_a_x_0_y_0_z_315.png,right,1,2.995,MR,easy,16,soqMs9Hfya
right,images/base/4_a.png,images/combined/4_a_x_45_y_0_z_90.png,left,0,6.789,MR,medium,1,soqMs9Hfya
right,images/base/10_b.png,images/combined/10_b_x_315_y_0_z_90.png,left,0,6.31,MR,medium,2,soqMs9Hfya
left,images/base/9_b.png,images/combined/9_a_x_315_y_0_z_90.png,right,0,5.36,MR,medium,3,soqMs9Hfya
right,images/base/14_a.png,images/combined/14_a_x_315_y_0_z_90.png,right,1,8.207,MR,medium,4,soqMs9Hfya
right,images/base/7_a.png,images/combined/7_a_x_315_y_0_z_270.png,right,1,5.41,MR,medium,5,soqMs9Hfya
left,images/base/13_b.png,images/combined/13_a_x_315_y_0_z_90.png,left,1,4.56,MR,medium,6,soqMs9Hfya
left,images/base/6_b.png,images/combined/6_a_x_315_y_0_z_270.png,left,1,8.559,MR,medium,7,soqMs9Hfya
left,images/base/3_a.png,images/combined/3_b_x_45_y_0_z_90.png,left,1,5.528,MR,medium,8,soqMs9Hfya
left,images/base/11_a.png,images/combined/11_b_x_315_y_0_z_90.png,left,1,12.46,MR,medium,9,soqMs9Hfya
right,images/base/8_a.png,images/combined/8_a_x_45_y_0_z_270.png,right,1,8.792,MR,medium,10,soqMs9Hfya
right,images/base/5_b.png,images/combined/5_b_x_315_y_0_z_90.png,right,1,4.47,MR,medium,11,soqMs9Hfya
left,images/base/2_a.png,images/combined/2_b_x_45_y_0_z_90.png,left,1,7.609,MR,medium,12,soqMs9Hfya
left,images/base/1_b.png,images/combined/1_a_x_45_y_0_z_270.png,left,1,9.709,MR,medium,13,soqMs9Hfya
left,images/base/15_b.png,images/combined/15_a_x_45_y_0_z_270.png,left,1,12.21,MR,medium,14,soqMs9Hfya
right,images/base/16_b.png,images/combined/16_b_x_315_y_0_z_90.png,left,0,8.294,MR,medium,15,soqMs9Hfya
right,images/base/12_a.png,images/combined/12_a_x_45_y_0_z_270.png,right,1,8.357,MR,medium,16,soqMs9Hfya
right,images/base/16_a.png,images/combined/16_a_x_90_y_0_z_90.png,right,1,5.606,MR,hard,1,soqMs9Hfya
right,images/base/6_b.png,images/combined/6_b_x_270_y_0_z_270.png,left,0,8.54,MR,hard,2,soqMs9Hfya
left,images/base/9_b.png,images/combined/9_a_x_90_y_0_z_90.png,left,1,9.771,MR,hard,3,soqMs9Hfya
left,images/base/15_b.png,images/combined/15_a_x_270_y_0_z_270.png,right,0,9.119,MR,hard,4,soqMs9Hfya
right,images/base/10_a.png,images/combined/10_a_x_90_y_0_z_270.png,right,1,8.476,MR,hard,5,soqMs9Hfya
right,images/base/13_a.png,images/combined/13_a_x_270_y_0_z_270.png,right,1,7.008,MR,hard,6,soqMs9Hfya
left,images/base/1_b.png,images/combined/1_a_x_90_y_0_z_270.png,left,1,5.933,MR,hard,7,soqMs9Hfya
left,images/base/8_a.png,images/combined/8_b_x_90_y_0_z_90.png,left,1,21.81,MR,hard,8,soqMs9Hfya
right,images/base/12_a.png,images/combined/12_a_x_270_y_0_z_90.png,right,1,7.36,MR,hard,9,soqMs9Hfya
left,images/base/11_b.png,images/combined/11_a_x_90_y_0_z_270.png,left,1,10.662,MR,hard,10,soqMs9Hfya
left,images/base/14_b.png,images/combined/14_a_x_90_y_0_z_270.png,left,1,9.875,MR,hard,11,soqMs9Hfya
right,images/base/4_b.png,images/combined/4_b_x_90_y_0_z_90.png,right,1,10.21,MR,hard,12,soqMs9Hfya
left,images/base/3_b.png,images/combined/3_a_x_90_y_0_z_90.png,left,1,11.523,MR,hard,13,soqMs9Hfya
right,images/base/2_b.png,images/combined/2_b_x_90_y_0_z_270.png,right,1,15.977,MR,hard,14,soqMs9Hfya
right,images/base/7_a.png,images/combined/7_a_x_270_y_0_z_90.png,left,0,4.808,MR,hard,15,soqMs9Hfya
right,images/base/5_a.png,images/combined/5_a_x_90_y_0_z_90.png,left,0,9.309,MR,hard,16,soqMs9Hfya
right,images/base/7_b.png,images/combined/7_b_x_0_y_0_z_45.png,right,1,5.0338,MR,easy,1,YuaQwhP1ZU
left,images/base/11_b.png,images/combined/11_a_x_0_y_0_z_45.png,left,1,4.5953,MR,easy,2,YuaQwhP1ZU
left,images/base/13_b.png,images/combined/13_a_x_0_y_0_z_45.png,left,1,5.8493,MR,easy,3,YuaQwhP1ZU
right,images/base/12_b.png,images/combined/12_b_x_0_y_0_z_45.png,right,1,6.1575,MR,easy,4,YuaQwhP1ZU
right,images/base/5_a.png,images/combined/5_a_x_0_y_0_z_315.png,right,1,3.15,MR,easy,5,YuaQwhP1ZU
left,images/base/2_a.png,images/combined/2_b_x_0_y_0_z_45.png,left,1,4.3343,MR,easy,6,YuaQwhP1ZU
right,images/base/4_b.png,images/combined/4_b_x_0_y_0_z_45.png,right,1,2.4438,MR,easy,7,YuaQwhP1ZU
right,images/base/8_a.png,images/combined/8_a_x_0_y_0_z_45.png,right,1,2.7159,MR,easy,8,YuaQwhP1ZU
left,images/base/1_b.png,images/combined/1_a_x_0_y_0_z_315.png,left,1,2.2368,MR,easy,9,YuaQwhP1ZU
right,images/base/15_a.png,images/combined/15_a_x_0_y_0_z_45.png,right,1,6.3992000000000004,MR,easy,10,YuaQwhP1ZU
left,images/base/3_a.png,images/combined/3_b_x_0_y_0_z_45.png,left,1,2.9509,MR,easy,11,YuaQwhP1ZU
right,images/base/10_b.png,images/combined/10_b_x_0_y_0_z_45.png,right,1,2.0481,MR,easy,12,YuaQwhP1ZU
right,images/base/14_b.png,images/combined/14_b_x_0_y_0_z_315.png,right,1,3.2878,MR,easy,13,YuaQwhP1ZU
left,images/base/16_a.png,images/combined/16_b_x_0_y_0_z_315.png,left,1,1.7016,MR,easy,14,YuaQwhP1ZU
right,images/base/6_b.png,images/combined/6_b_x_0_y_0_z_45.png,right,1,2.7999,MR,easy,15,YuaQwhP1ZU
right,images/base/9_b.png,images/combined/9_b_x_0_y_0_z_315.png,right,1,2.25,MR,easy,16,YuaQwhP1ZU
left,images/base/11_a.png,images/combined/11_b_x_315_y_0_z_270.png,right,0,3.0491,MR,medium,1,YuaQwhP1ZU
right,images/base/1_b.png,images/combined/1_b_x_45_y_0_z_90.png,left,0,5.2555,MR,medium,2,YuaQwhP1ZU
left,images/base/14_a.png,images/combined/14_b_x_45_y_0_z_270.png,left,1,2.6401,MR,medium,3,YuaQwhP1ZU
right,images/base/4_b.png,images/combined/4_b_x_45_y_0_z_90.png,right,1,1.7078,MR,medium,4,YuaQwhP1ZU
right,images/base/15_b.png,images/combined/15_b_x_45_y_0_z_270.png,right,1,3.3255,MR,medium,5,YuaQwhP1ZU
right,images/base/2_b.png,images/combined/2_b_x_315_y_0_z_90.png,right,1,0.886,MR,medium,6,YuaQwhP1ZU
left,images/base/5_a.png,images/combined/5_b_x_45_y_0_z_90.png,left,1,2.058,MR,medium,7,YuaQwhP1ZU
right,images/base/3_b.png,images/combined/3_b_x_45_y_0_z_90.png,right,1,4.9897,MR,medium,8,YuaQwhP1ZU
right,images/base/8_b.png,images/combined/8_b_x_45_y_0_z_270.png,left,0,4.6663,MR,medium,9,YuaQwhP1ZU
left,images/base/10_a.png,images/combined/10_b_x_45_y_0_z_270.png,left,1,10.2952,MR,medium,10,YuaQwhP1ZU
right,images/base/13_b.png,images/combined/13_b_x_45_y_0_z_270.png,right,1,2.8793,MR,medium,11,YuaQwhP1ZU
