correctAns,key,is_correct,rt,task,level,trial,id,pool
right,right,1,9.9932,MR,easy,1,jKBHzXx0Pg,pool1
right,right,1,14.0918,MR,easy,2,jKBHzXx0Pg,pool1
left,left,1,6.1454,MR,easy,3,jKBHzXx0Pg,pool1
right,right,1,4.9912,MR,easy,4,jKBHzXx0Pg,pool1
left,left,1,16.2868,MR,easy,5,jKBHzXx0Pg,pool1
left,right,0,4.7361,MR,easy,6,jKBHzXx0Pg,pool1
right,right,1,4.5436,MR,easy,7,jKBHzXx0Pg,pool1
right,left,0,9.9087,MR,easy,8,jKBHzXx0Pg,pool1
left,left,1,8.1565,MR,easy,9,jKBHzXx0Pg,pool1
right,right,1,3.6162,MR,easy,10,jKBHzXx0Pg,pool1
right,right,1,6.4529,MR,easy,11,jKBHzXx0Pg,pool1
right,right,1,4.8548,MR,easy,12,jKBHzXx0Pg,pool1
right,right,1,2.8291,MR,easy,13,jKBHzXx0Pg,pool1
left,left,1,3.1643,MR,easy,14,jKBHzXx0Pg,pool1
right,right,1,5.1079,MR,easy,15,jKBHzXx0Pg,pool1
right,right,1,4.8875,MR,easy,16,jKBHzXx0Pg,pool1
left,left,1,11.8866,MR,medium,1,jKBHzXx0Pg,pool1
right,right,1,5.653,MR,medium,2,jKBHzXx0Pg,pool1
left,left,1,9.3912,MR,medium,3,jKBHzXx0Pg,pool1
right,right,1,9.4858,MR,medium,4,jKBHzXx0Pg,pool1
left,left,1,5.0945,MR,medium,5,jKBHzXx0Pg,pool1
left,left,1,14.6607,MR,medium,6,jKBHzXx0Pg,pool1
right,right,1,4.5267,MR,medium,7,jKBHzXx0Pg,pool1
left,right,0,5.7767,MR,medium,8,jKBHzXx0Pg,pool1
right,right,1,8.5676,MR,medium,9,jKBHzXx0Pg,pool1
left,left,1,7.3236,MR,medium,10,jKBHzXx0Pg,pool1
left,left,1,15.6626,MR,medium,11,jKBHzXx0Pg,pool1
right,left,0,6.2324,MR,medium,12,jKBHzXx0Pg,pool1
left,left,1,14.7005,MR,medium,13,jKBHzXx0Pg,pool1
left,right,0,6.7478,MR,medium,14,jKBHzXx0Pg,pool1
left,left,1,7.4836,MR,medium,15,jKBHzXx0Pg,pool1
left,left,1,12.3768,MR,medium,16,jKBHzXx0Pg,pool1
right,right,1,14.242,MR,hard,1,jKBHzXx0Pg,pool1
left,left,1,11.1673,MR,hard,2,jKBHzXx0Pg,pool1
left,left,1,20.6262,MR,hard,3,jKBHzXx0Pg,pool1
right,right,1,7.8381,MR,hard,4,jKBHzXx0Pg,pool1
right,right,1,9.788,MR,hard,5,jKBHzXx0Pg,pool1
right,right,1,16.0254,MR,hard,6,jKBHzXx0Pg,pool1
left,left,1,7.0356,MR,hard,7,jKBHzXx0Pg,pool1
right,right,1,5.0773,MR,hard,8,jKBHzXx0Pg,pool1
right,right,1,22.902,MR,hard,9,jKBHzXx0Pg,pool1
left,right,0,29.4355,MR,hard,10,jKBHzXx0Pg,pool1
left,left,1,8.1205,MR,hard,11,jKBHzXx0Pg,pool1
left,left,1,21.7348,MR,hard,12,jKBHzXx0Pg,pool1
right,left,0,13.8957,MR,hard,13,jKBHzXx0Pg,pool1
right,left,0,8.1301,MR,hard,14,jKBHzXx0Pg,pool1
right,right,1,7.9212,MR,hard,15,jKBHzXx0Pg,pool1
right,right,1,5.4798,MR,hard,16,jKBHzXx0Pg,pool1
left,right,0,4.3718,MR,easy,1,TqUBvW8Aaz,pool1
right,right,1,4.2826,MR,easy,2,TqUBvW8Aaz,pool1
left,right,0,7.4996,MR,easy,3,TqUBvW8Aaz,pool1
left,right,0,2.9168,MR,easy,4,TqUBvW8Aaz,pool1
left,right,0,4.3382,MR,easy,5,TqUBvW8Aaz,pool1
left,right,0,3.6591,MR,easy,6,TqUBvW8Aaz,pool1
right,right,1,4.8517,MR,easy,7,TqUBvW8Aaz,pool1
left,right,0,5.0869,MR,easy,8,TqUBvW8Aaz,pool1
left,right,0,4.4366,MR,easy,9,TqUBvW8Aaz,pool1
right,right,1,5.9319,MR,easy,10,TqUBvW8Aaz,pool1
left,right,0,3.3415,MR,easy,11,TqUBvW8Aaz,pool1
left,right,0,4.3366,MR,easy,12,TqUBvW8Aaz,pool1
right,right,1,4.354,MR,easy,13,TqUBvW8Aaz,pool1
right,right,1,3.443,MR,easy,14,TqUBvW8Aaz,pool1
right,right,1,6.4579,MR,easy,15,TqUBvW8Aaz,pool1
right,right,1,5.0785,MR,easy,16,TqUBvW8Aaz,pool1
left,left,1,10.9322,MR,medium,1,TqUBvW8Aaz,pool1
left,right,0,16.3712,MR,medium,2,TqUBvW8Aaz,pool1
left,left,1,12.0912,MR,medium,3,TqUBvW8Aaz,pool1
right,right,1,12.7071,MR,medium,4,TqUBvW8Aaz,pool1
right,right,1,9.269,MR,medium,5,TqUBvW8Aaz,pool1
right,left,0,10.5307,MR,medium,6,TqUBvW8Aaz,pool1
right,right,1,11.1425,MR,medium,7,TqUBvW8Aaz,pool1
right,right,1,7.6131,MR,medium,8,TqUBvW8Aaz,pool1
left,right,0,5.2263,MR,medium,9,TqUBvW8Aaz,pool1
right,right,1,10.4672,MR,medium,10,TqUBvW8Aaz,pool1
left,right,0,9.2544,MR,medium,11,TqUBvW8Aaz,pool1
right,left,0,10.8449,MR,medium,12,TqUBvW8Aaz,pool1
left,right,0,16.7676,MR,medium,13,TqUBvW8Aaz,pool1
right,right,1,15.9686,MR,medium,14,TqUBvW8Aaz,pool1
right,right,1,19.518,MR,medium,15,TqUBvW8Aaz,pool1
left,right,0,7.7766,MR,medium,16,TqUBvW8Aaz,pool1
right,left,0,13.4504,MR,hard,1,TqUBvW8Aaz,pool1
right,right,1,7.1518,MR,hard,2,TqUBvW8Aaz,pool1
left,left,1,23.9329,MR,hard,3,TqUBvW8Aaz,pool1
right,left,0,6.5042,MR,hard,4,TqUBvW8Aaz,pool1
right,right,1,11.632,MR,hard,5,TqUBvW8Aaz,pool1
left,left,1,8.9799,MR,hard,6,TqUBvW8Aaz,pool1
left,left,1,5.1548,MR,hard,7,TqUBvW8Aaz,pool1
right,right,1,12.607,MR,hard,8,TqUBvW8Aaz,pool1
right,right,1,10.5784,MR,hard,9,TqUBvW8Aaz,pool1
right,right,1,18.6331,MR,hard,10,TqUBvW8Aaz,pool1
right,left,0,16.6172,MR,hard,11,TqUBvW8Aaz,pool1
right,left,0,6.6185,MR,hard,12,TqUBvW8Aaz,pool1
left,left,1,4.0542,MR,hard,13,TqUBvW8Aaz,pool1
right,left,0,8.9599,MR,hard,14,TqUBvW8Aaz,pool1
left,right,0,16.3033,MR,hard,15,TqUBvW8Aaz,pool1
left,left,1,10.6865,MR,hard,16,TqUBvW8Aaz,pool1
left,right,0,11.161,MR,easy,1,WAh9qhgg6o,pool1
right,right,1,4.455,MR,easy,2,WAh9qhgg6o,pool1
right,right,1,6.028,MR,easy,3,WAh9qhgg6o,pool1
left,left,1,11.361,MR,easy,4,WAh9qhgg6o,pool1
left,left,1,5.188,MR,easy,5,WAh9qhgg6o,pool1
left,left,1,5.363,MR,easy,6,WAh9qhgg6o,pool1
right,right,1,5.871,MR,easy,7,WAh9qhgg6o,pool1
left,right,0,5.601,MR,easy,8,WAh9qhgg6o,pool1
right,right,1,2.602,MR,easy,9,WAh9qhgg6o,pool1
right,right,1,1.922,MR,easy,10,WAh9qhgg6o,pool1
left,left,1,5.413,MR,easy,11,WAh9qhgg6o,pool1
right,right,1,2.4,MR,easy,12,WAh9qhgg6o,pool1
right,right,1,2.064,MR,easy,13,WAh9qhgg6o,pool1
left,left,1,2.039,MR,easy,14,WAh9qhgg6o,pool1
right,right,1,2.934,MR,easy,15,WAh9qhgg6o,pool1
left,left,1,1.789,MR,easy,16,WAh9qhgg6o,pool1
right,left,0,5.795,MR,medium,1,WAh9qhgg6o,pool1
right,left,0,6.677,MR,medium,2,WAh9qhgg6o,pool1
left,right,0,9.96,MR,medium,3,WAh9qhgg6o,pool1
right,left,0,2.881,MR,medium,4,WAh9qhgg6o,pool1
right,left,0,2.414,MR,medium,5,WAh9qhgg6o,pool1
right,left,0,9.004,MR,medium,6,WAh9qhgg6o,pool1
right,left,0,2.092,MR,medium,7,WAh9qhgg6o,pool1
right,left,0,3.363,MR,medium,8,WAh9qhgg6o,pool1
left,left,1,5.517,MR,medium,9,WAh9qhgg6o,pool1
left,left,1,3.848,MR,medium,10,WAh9qhgg6o,pool1
right,left,0,2.638,MR,medium,11,WAh9qhgg6o,pool1
right,left,0,3.837,MR,medium,12,WAh9qhgg6o,pool1
right,left,0,4.544,MR,medium,13,WAh9qhgg6o,pool1
right,left,0,1.889,MR,medium,14,WAh9qhgg6o,pool1
right,left,0,2.343,MR,medium,15,WAh9qhgg6o,pool1
left,right,0,6.2,MR,medium,16,WAh9qhgg6o,pool1
left,left,1,2.71,MR,hard,1,WAh9qhgg6o,pool1
left,left,1,4.401,MR,hard,2,WAh9qhgg6o,pool1
left,right,0,6.696,MR,hard,3,WAh9qhgg6o,pool1
left,left,1,2.961,MR,hard,4,WAh9qhgg6o,pool1
right,left,0,4.268,MR,hard,5,WAh9qhgg6o,pool1
right,left,0,4.255,MR,hard,6,WAh9qhgg6o,pool1
left,left,1,4.947,MR,hard,7,WAh9qhgg6o,pool1
left,left,1,7.628,MR,hard,8,WAh9qhgg6o,pool1
left,left,1,3.359,MR,hard,9,WAh9qhgg6o,pool1
right,left,0,2.498,MR,hard,10,WAh9qhgg6o,pool1
left,left,1,6.329,MR,hard,11,WAh9qhgg6o,pool1
left,right,0,3.321,MR,hard,12,WAh9qhgg6o,pool1
left,left,1,2.187,MR,hard,13,WAh9qhgg6o,pool1
right,left,0,3.067,MR,hard,14,WAh9qhgg6o,pool1
right,right,1,5.827,MR,hard,15,WAh9qhgg6o,pool1
left,right,0,11.293,MR,hard,16,WAh9qhgg6o,pool1
left,left,1,8.196,MR,easy,1,6xDo1DDaCf,pool1
left,left,1,11.926,MR,easy,2,6xDo1DDaCf,pool1
right,right,1,3.269,MR,easy,3,6xDo1DDaCf,pool1
left,left,1,7.687,MR,easy,4,6xDo1DDaCf,pool1
left,left,1,4.233,MR,easy,5,6xDo1DDaCf,pool1
left,left,1,16.175,MR,easy,6,6xDo1DDaCf,pool1
left,left,1,4.506,MR,easy,7,6xDo1DDaCf,pool1
right,right,1,4.378,MR,easy,8,6xDo1DDaCf,pool1
left,left,1,3.89,MR,easy,9,6xDo1DDaCf,pool1
right,right,1,3.152,MR,easy,10,6xDo1DDaCf,pool1
left,left,1,1.836,MR,easy,11,6xDo1DDaCf,pool1
right,right,1,5.839,MR,easy,12,6xDo1DDaCf,pool1
left,left,1,2.48,MR,easy,13,6xDo1DDaCf,pool1
left,left,1,1.509,MR,easy,14,6xDo1DDaCf,pool1
right,right,1,2.97,MR,easy,15,6xDo1DDaCf,pool1
right,right,1,2.372,MR,easy,16,6xDo1DDaCf,pool1
left,left,1,5.211,MR,medium,1,6xDo1DDaCf,pool1
left,left,1,6.341,MR,medium,2,6xDo1DDaCf,pool1
left,left,1,5.067,MR,medium,3,6xDo1DDaCf,pool1
right,right,1,3.374,MR,medium,4,6xDo1DDaCf,pool1
left,left,1,3.9,MR,medium,5,6xDo1DDaCf,pool1
left,left,1,2.612,MR,medium,6,6xDo1DDaCf,pool1
right,right,1,3.749,MR,medium,7,6xDo1DDaCf,pool1
left,left,1,3.818,MR,medium,8,6xDo1DDaCf,pool1
right,right,1,5.285,MR,medium,9,6xDo1DDaCf,pool1
left,left,1,2.345,MR,medium,10,6xDo1DDaCf,pool1
right,right,1,6.339,MR,medium,11,6xDo1DDaCf,pool1
left,left,1,7.185,MR,medium,12,6xDo1DDaCf,pool1
right,right,1,5.106,MR,medium,13,6xDo1DDaCf,pool1
left,left,1,2.95,MR,medium,14,6xDo1DDaCf,pool1
right,right,1,3.691,MR,medium,15,6xDo1DDaCf,pool1
right,right,1,5.883,MR,medium,16,6xDo1DDaCf,pool1
left,left,1,9.195,MR,hard,1,6xDo1DDaCf,pool1
left,left,1,4.606,MR,hard,2,6xDo1DDaCf,pool1
right,right,1,2.923,MR,hard,3,6xDo1DDaCf,pool1
right,right,1,4.313,MR,hard,4,6xDo1DDaCf,pool1
right,right,1,10.57,MR,hard,5,6xDo1DDaCf,pool1
right,right,1,8.513,MR,hard,6,6xDo1DDaCf,pool1
right,right,1,5.772,MR,hard,7,6xDo1DDaCf,pool1
left,left,1,9.434,MR,hard,8,6xDo1DDaCf,pool1
right,right,1,5.369,MR,hard,9,6xDo1DDaCf,pool1
left,left,1,5.056,MR,hard,10,6xDo1DDaCf,pool1
right,right,1,3.615,MR,hard,11,6xDo1DDaCf,pool1
left,right,0,6.777,MR,hard,12,6xDo1DDaCf,pool1
left,right,0,2.987,MR,hard,13,6xDo1DDaCf,pool1
left,left,1,9.254,MR,hard,14,6xDo1DDaCf,pool1
right,left,0,9.674,MR,hard,15,6xDo1DDaCf,pool1
left,left,1,10.015,MR,hard,16,6xDo1DDaCf,pool1
right,left,0,5.34,MR,easy,1,9ZffIZqFHz,pool1
right,right,1,3.3298,MR,easy,2,9ZffIZqFHz,pool1
left,left,1,6.1909,MR,easy,3,9ZffIZqFHz,pool1
right,right,1,3.8907,MR,easy,4,9ZffIZqFHz,pool1
right,right,1,3.6596,MR,easy,5,9ZffIZqFHz,pool1
left,left,1,9.1263,MR,easy,6,9ZffIZqFHz,pool1
right,right,1,4.5694,MR,easy,7,9ZffIZqFHz,pool1
left,left,1,9.2088,MR,easy,8,9ZffIZqFHz,pool1
right,right,1,5.2886,MR,easy,9,9ZffIZqFHz,pool1
left,left,1,3.4047,MR,easy,10,9ZffIZqFHz,pool1
left,left,1,9.4198,MR,easy,11,9ZffIZqFHz,pool1
right,right,1,4.6738,MR,easy,12,9ZffIZqFHz,pool1
right,right,1,5.6159,MR,easy,13,9ZffIZqFHz,pool1
left,left,1,3.5342,MR,easy,14,9ZffIZqFHz,pool1
left,left,1,6.1785,MR,easy,15,9ZffIZqFHz,pool1
right,right,1,5.8306,MR,easy,16,9ZffIZqFHz,pool1
left,right,0,4.3626,MR,medium,1,9ZffIZqFHz,pool1
left,left,1,7.8796,MR,medium,2,9ZffIZqFHz,pool1
left,left,1,7.9704,MR,medium,3,9ZffIZqFHz,pool1
left,left,1,8.2875,MR,medium,4,9ZffIZqFHz,pool1
right,left,0,11.3383,MR,medium,5,9ZffIZqFHz,pool1
left,left,1,6.3652,MR,medium,6,9ZffIZqFHz,pool1
right,right,1,4.9626,MR,medium,7,9ZffIZqFHz,pool1
right,right,1,5.9648,MR,medium,8,9ZffIZqFHz,pool1
right,right,1,4.6756,MR,medium,9,9ZffIZqFHz,pool1
left,left,1,7.6475,MR,medium,10,9ZffIZqFHz,pool1
right,right,1,5.2166,MR,medium,11,9ZffIZqFHz,pool1
left,left,1,12.2295,MR,medium,12,9ZffIZqFHz,pool1
right,right,1,7.5419,MR,medium,13,9ZffIZqFHz,pool1
left,left,1,5.1884,MR,medium,14,9ZffIZqFHz,pool1
left,left,1,9.1166,MR,medium,15,9ZffIZqFHz,pool1
left,left,1,4.3392,MR,medium,16,9ZffIZqFHz,pool1
left,left,1,4.63,MR,hard,1,9ZffIZqFHz,pool1
left,left,1,9.5537,MR,hard,2,9ZffIZqFHz,pool1
right,right,1,7.1572,MR,hard,3,9ZffIZqFHz,pool1
right,left,0,6.7872,MR,hard,4,9ZffIZqFHz,pool1
left,left,1,5.603,MR,hard,5,9ZffIZqFHz,pool1
right,left,0,8.0399,MR,hard,6,9ZffIZqFHz,pool1
right,left,0,5.4234,MR,hard,7,9ZffIZqFHz,pool1
right,left,0,6.4321,MR,hard,8,9ZffIZqFHz,pool1
left,left,1,7.3466,MR,hard,9,9ZffIZqFHz,pool1
right,right,1,9.5586,MR,hard,10,9ZffIZqFHz,pool1
left,left,1,9.7015,MR,hard,11,9ZffIZqFHz,pool1
left,right,0,11.0411,MR,hard,12,9ZffIZqFHz,pool1
left,left,1,7.3731,MR,hard,13,9ZffIZqFHz,pool1
left,left,1,7.9811,MR,hard,14,9ZffIZqFHz,pool1
right,right,1,8.9807,MR,hard,15,9ZffIZqFHz,pool1
right,right,1,8.3776,MR,hard,16,9ZffIZqFHz,pool1
right,left,0,6.9512,MR,easy,1,wiRZfBYOru,pool2
right,right,1,2.4904,MR,easy,2,wiRZfBYOru,pool2
left,right,0,1.831,MR,easy,3,wiRZfBYOru,pool2
left,left,1,10.2988,MR,easy,4,wiRZfBYOru,pool2
left,right,0,3.2031,MR,easy,5,wiRZfBYOru,pool2
left,right,0,2.1667,MR,easy,6,wiRZfBYOru,pool2
left,left,1,8.6685,MR,easy,7,wiRZfBYOru,pool2
right,right,1,3.6979,MR,easy,8,wiRZfBYOru,pool2
left,right,0,6.9266,MR,easy,9,wiRZfBYOru,pool2
left,left,1,8.0609,MR,easy,10,wiRZfBYOru,pool2
right,right,1,8.6878,MR,easy,11,wiRZfBYOru,pool2
right,right,1,4.8161,MR,easy,12,wiRZfBYOru,pool2
right,right,1,5.7918,MR,easy,13,wiRZfBYOru,pool2
left,left,1,4.2471,MR,easy,14,wiRZfBYOru,pool2
right,right,1,3.5075,MR,easy,15,wiRZfBYOru,pool2
left,left,1,13.7998,MR,easy,16,wiRZfBYOru,pool2
right,right,1,10.2288,MR,medium,1,wiRZfBYOru,pool2
left,right,0,8.6739,MR,medium,2,wiRZfBYOru,pool2
right,right,1,8.4709,MR,medium,3,wiRZfBYOru,pool2
right,right,1,5.3294,MR,medium,4,wiRZfBYOru,pool2
right,right,1,21.6155,MR,medium,5,wiRZfBYOru,pool2
left,right,0,0.9705,MR,medium,6,wiRZfBYOru,pool2
right,right,1,0.9602,MR,medium,7,wiRZfBYOru,pool2
right,right,1,0.8491,MR,medium,8,wiRZfBYOru,pool2
left,right,0,0.8011,MR,medium,9,wiRZfBYOru,pool2
right,right,1,1.0892,MR,medium,10,wiRZfBYOru,pool2
right,right,1,1.3406,MR,medium,11,wiRZfBYOru,pool2
left,right,0,3.3668,MR,medium,12,wiRZfBYOru,pool2
right,right,1,4.8971,MR,medium,13,wiRZfBYOru,pool2
left,right,0,7.5104,MR,medium,14,wiRZfBYOru,pool2
right,right,1,1.6951,MR,medium,15,wiRZfBYOru,pool2
left,right,0,2.5447,MR,medium,16,wiRZfBYOru,pool2
left,right,0,4.7893,MR,hard,1,wiRZfBYOru,pool2
right,right,1,12.6139,MR,hard,2,wiRZfBYOru,pool2
right,right,1,12.6339,MR,hard,3,wiRZfBYOru,pool2
right,right,1,9.7315,MR,hard,4,wiRZfBYOru,pool2
left,right,0,11.8395,MR,hard,5,wiRZfBYOru,pool2
left,right,0,5.927,MR,hard,6,wiRZfBYOru,pool2
left,left,1,9.6668,MR,hard,7,wiRZfBYOru,pool2
left,right,0,16.1346,MR,hard,8,wiRZfBYOru,pool2
right,right,1,7.0407,MR,hard,9,wiRZfBYOru,pool2
right,right,1,6.8422,MR,hard,10,wiRZfBYOru,pool2
right,left,0,8.0501,MR,hard,11,wiRZfBYOru,pool2
left,right,0,6.6932,MR,hard,12,wiRZfBYOru,pool2
left,right,0,7.2041,MR,hard,13,wiRZfBYOru,pool2
left,right,0,10.5914,MR,hard,14,wiRZfBYOru,pool2
left,right,0,8.608,MR,hard,15,wiRZfBYOru,pool2
right,right,1,13.4167,MR,hard,16,wiRZfBYOru,pool2
left,right,0,7.8634,MR,easy,1,cCWrG11sgp,pool2
left,right,0,1.7628,MR,easy,2,cCWrG11sgp,pool2
left,left,1,10.8986,MR,easy,3,cCWrG11sgp,pool2
left,left,1,6.5535,MR,easy,4,cCWrG11sgp,pool2
left,left,1,8.2391,MR,easy,5,cCWrG11sgp,pool2
right,right,1,4.5018,MR,easy,6,cCWrG11sgp,pool2
right,left,0,3.7108,MR,easy,7,cCWrG11sgp,pool2
right,right,1,3.7037,MR,easy,8,cCWrG11sgp,pool2
right,right,1,5.4096,MR,easy,9,cCWrG11sgp,pool2
left,left,1,3.1027,MR,easy,10,cCWrG11sgp,pool2
right,right,1,3.9575,MR,easy,11,cCWrG11sgp,pool2
right,right,1,3.4017,MR,easy,12,cCWrG11sgp,pool2
right,left,0,2.3961,MR,easy,13,cCWrG11sgp,pool2
right,right,1,4.9638,MR,easy,14,cCWrG11sgp,pool2
left,left,1,3.9485,MR,easy,15,cCWrG11sgp,pool2
right,right,1,2.1947,MR,easy,16,cCWrG11sgp,pool2
left,left,1,5.1484,MR,medium,1,cCWrG11sgp,pool2
right,right,1,4.7693,MR,medium,2,cCWrG11sgp,pool2
left,left,1,9.483,MR,medium,3,cCWrG11sgp,pool2
left,left,1,6.2739,MR,medium,4,cCWrG11sgp,pool2
left,left,1,4.901,MR,medium,5,cCWrG11sgp,pool2
left,left,1,2.6307,MR,medium,6,cCWrG11sgp,pool2
left,left,1,6.3109,MR,medium,7,cCWrG11sgp,pool2
right,left,0,11.3369,MR,medium,8,cCWrG11sgp,pool2
left,left,1,12.6316,MR,medium,9,cCWrG11sgp,pool2
right,right,1,12.4955,MR,medium,10,cCWrG11sgp,pool2
right,right,1,4.0395,MR,medium,11,cCWrG11sgp,pool2
right,right,1,7.3622,MR,medium,12,cCWrG11sgp,pool2
right,right,1,4.9965,MR,medium,13,cCWrG11sgp,pool2
right,right,1,9.7113,MR,medium,14,cCWrG11sgp,pool2
left,left,1,6.6705,MR,medium,15,cCWrG11sgp,pool2
right,right,1,6.1078,MR,medium,16,cCWrG11sgp,pool2
right,right,1,2.5606,MR,hard,1,cCWrG11sgp,pool2
left,right,0,0.8729,MR,hard,2,cCWrG11sgp,pool2
left,left,1,2.2282,MR,hard,3,cCWrG11sgp,pool2
left,right,0,1.3002,MR,hard,4,cCWrG11sgp,pool2
right,right,1,0.7819,MR,hard,5,cCWrG11sgp,pool2
left,left,1,0.7584,MR,hard,6,cCWrG11sgp,pool2
left,left,1,0.6917,MR,hard,7,cCWrG11sgp,pool2
left,left,1,0.5752,MR,hard,8,cCWrG11sgp,pool2
left,right,0,0.6878,MR,hard,9,cCWrG11sgp,pool2
left,right,0,0.6699,MR,hard,10,cCWrG11sgp,pool2
left,right,0,0.6183,MR,hard,11,cCWrG11sgp,pool2
left,left,1,0.6602,MR,hard,12,cCWrG11sgp,pool2
left,left,1,0.6419,MR,hard,13,cCWrG11sgp,pool2
left,left,1,0.6808,MR,hard,14,cCWrG11sgp,pool2
left,right,0,0.5514,MR,hard,15,cCWrG11sgp,pool2
right,right,1,0.5397,MR,hard,16,cCWrG11sgp,pool2
right,right,1,8.8695,MR,easy,1,gI6hCgCchT,pool2
left,right,0,6.8338,MR,easy,2,gI6hCgCchT,pool2
right,right,1,10.5719,MR,easy,3,gI6hCgCchT,pool2
right,right,1,4.7344,MR,easy,4,gI6hCgCchT,pool2
right,right,1,5.0006,MR,easy,5,gI6hCgCchT,pool2
right,right,1,5.0815,MR,easy,6,gI6hCgCchT,pool2
right,right,1,21.9882,MR,easy,7,gI6hCgCchT,pool2
right,right,1,3.3809,MR,easy,8,gI6hCgCchT,pool2
right,right,1,5.5263,MR,easy,9,gI6hCgCchT,pool2
left,right,0,12.9648,MR,easy,10,gI6hCgCchT,pool2
left,right,0,8.1787,MR,easy,11,gI6hCgCchT,pool2
left,right,0,3.9965,MR,easy,12,gI6hCgCchT,pool2
right,right,1,6.9514,MR,easy,13,gI6hCgCchT,pool2
left,right,0,16.1993,MR,easy,14,gI6hCgCchT,pool2
right,right,1,3.8957,MR,easy,15,gI6hCgCchT,pool2
right,right,1,2.6732,MR,easy,16,gI6hCgCchT,pool2
left,right,0,9.3815,MR,medium,1,gI6hCgCchT,pool2
left,right,0,35.73,MR,medium,2,gI6hCgCchT,pool2
right,right,1,7.06,MR,medium,3,gI6hCgCchT,pool2
right,right,1,29.0909,MR,medium,4,gI6hCgCchT,pool2
left,right,0,15.5998,MR,medium,5,gI6hCgCchT,pool2
left,right,0,37.5013,MR,medium,6,gI6hCgCchT,pool2
left,left,1,7.8703,MR,medium,7,gI6hCgCchT,pool2
right,right,1,20.2465,MR,medium,8,gI6hCgCchT,pool2
left,right,0,15.3014,MR,medium,9,gI6hCgCchT,pool2
right,left,0,30.3555,MR,medium,10,gI6hCgCchT,pool2
right,right,1,36.9543,MR,medium,11,gI6hCgCchT,pool2
right,right,1,9.031,MR,medium,12,gI6hCgCchT,pool2
right,right,1,10.1257,MR,medium,13,gI6hCgCchT,pool2
right,right,1,11.2497,MR,medium,14,gI6hCgCchT,pool2
right,right,1,16.7537,MR,medium,15,gI6hCgCchT,pool2
right,right,1,8.8426,MR,medium,16,gI6hCgCchT,pool2
right,right,1,9.5354,MR,hard,1,gI6hCgCchT,pool2
left,right,0,15.0931,MR,hard,2,gI6hCgCchT,pool2
right,right,1,6.3435,MR,hard,3,gI6hCgCchT,pool2
left,right,0,3.5824,MR,hard,4,gI6hCgCchT,pool2
left,right,0,7.4501,MR,hard,5,gI6hCgCchT,pool2
right,left,0,13.9632,MR,hard,6,gI6hCgCchT,pool2
left,left,1,4.7345,MR,hard,7,gI6hCgCchT,pool2
right,right,1,27.8594,MR,hard,8,gI6hCgCchT,pool2
right,left,0,13.6768,MR,hard,9,gI6hCgCchT,pool2
left,left,1,10.8503,MR,hard,10,gI6hCgCchT,pool2
left,left,1,7.4176,MR,hard,11,gI6hCgCchT,pool2
right,right,1,12.7193,MR,hard,12,gI6hCgCchT,pool2
left,right,0,5.517,MR,hard,13,gI6hCgCchT,pool2
right,right,1,18.2829,MR,hard,14,gI6hCgCchT,pool2
left,right,0,16.7164,MR,hard,15,gI6hCgCchT,pool2
left,right,0,21.2166,MR,hard,16,gI6hCgCchT,pool2
right,right,1,3.0407,MR,easy,1,kGWL9y5AS9,pool2
left,right,0,7.4755,MR,easy,2,kGWL9y5AS9,pool2
left,right,0,3.5838,MR,easy,3,kGWL9y5AS9,pool2
left,right,0,3.8897,MR,easy,4,kGWL9y5AS9,pool2
right,right,1,7.303,MR,easy,5,kGWL9y5AS9,pool2
right,right,1,2.2217,MR,easy,6,kGWL9y5AS9,pool2
left,right,0,4.0007,MR,easy,7,kGWL9y5AS9,pool2
left,right,0,7.2727,MR,easy,8,kGWL9y5AS9,pool2
left,right,0,6.1176,MR,easy,9,kGWL9y5AS9,pool2
right,right,1,5.8093,MR,easy,10,kGWL9y5AS9,pool2
right,right,1,5.5514,MR,easy,11,kGWL9y5AS9,pool2
right,right,1,4.1568,MR,easy,12,kGWL9y5AS9,pool2
right,right,1,6.7037,MR,easy,13,kGWL9y5AS9,pool2
right,right,1,5.9175,MR,easy,14,kGWL9y5AS9,pool2
left,right,0,9.9086,MR,easy,15,kGWL9y5AS9,pool2
right,right,1,6.9166,MR,easy,16,kGWL9y5AS9,pool2
left,right,0,12.3899,MR,medium,1,kGWL9y5AS9,pool2
left,right,0,7.8708,MR,medium,2,kGWL9y5AS9,pool2
right,right,1,8.7008,MR,medium,3,kGWL9y5AS9,pool2
right,right,1,12.7667,MR,medium,4,kGWL9y5AS9,pool2
left,right,0,15.6486,MR,medium,5,kGWL9y5AS9,pool2
right,right,1,9.591,MR,medium,6,kGWL9y5AS9,pool2
left,right,0,8.7657,MR,medium,7,kGWL9y5AS9,pool2
right,right,1,9.3164,MR,medium,8,kGWL9y5AS9,pool2
left,right,0,10.8663,MR,medium,9,kGWL9y5AS9,pool2
left,right,0,8.5269,MR,medium,10,kGWL9y5AS9,pool2
left,right,0,12.2153,MR,medium,11,kGWL9y5AS9,pool2
right,right,1,9.4824,MR,medium,12,kGWL9y5AS9,pool2
right,left,0,12.0152,MR,medium,13,kGWL9y5AS9,pool2
left,left,1,7.551,MR,medium,14,kGWL9y5AS9,pool2
left,left,1,15.2342,MR,medium,15,kGWL9y5AS9,pool2
left,left,1,18.1473,MR,medium,16,kGWL9y5AS9,pool2
right,right,1,9.7831,MR,hard,1,kGWL9y5AS9,pool2
right,right,1,9.0723,MR,hard,2,kGWL9y5AS9,pool2
right,right,1,4.9744,MR,hard,3,kGWL9y5AS9,pool2
right,right,1,16.6922,MR,hard,4,kGWL9y5AS9,pool2
left,right,0,7.9828,MR,hard,5,kGWL9y5AS9,pool2
right,right,1,10.376,MR,hard,6,kGWL9y5AS9,pool2
left,right,0,10.1002,MR,hard,7,kGWL9y5AS9,pool2
left,left,1,14.3474,MR,hard,8,kGWL9y5AS9,pool2
left,right,0,7.5348,MR,hard,9,kGWL9y5AS9,pool2
left,right,0,6.345,MR,hard,10,kGWL9y5AS9,pool2
left,left,1,10.0362,MR,hard,11,kGWL9y5AS9,pool2
right,right,1,15.9148,MR,hard,12,kGWL9y5AS9,pool2
right,left,0,11.484,MR,hard,13,kGWL9y5AS9,pool2
left,right,0,2.9409,MR,hard,14,kGWL9y5AS9,pool2
left,right,0,5.535,MR,hard,15,kGWL9y5AS9,pool2
right,right,1,3.5667,MR,hard,16,kGWL9y5AS9,pool2
left,right,0,3.0841,MR,easy,1,ntoLpzjCrW,pool2
right,right,1,2.1173,MR,easy,2,ntoLpzjCrW,pool2
left,right,0,2.8248,MR,easy,3,ntoLpzjCrW,pool2
right,right,1,5.648,MR,easy,4,ntoLpzjCrW,pool2
left,left,1,6.1318,MR,easy,5,ntoLpzjCrW,pool2
left,left,1,4.0247,MR,easy,6,ntoLpzjCrW,pool2
left,left,1,2.8592,MR,easy,7,ntoLpzjCrW,pool2
right,right,1,4.4601,MR,easy,8,ntoLpzjCrW,pool2
left,left,1,3.5748,MR,easy,9,ntoLpzjCrW,pool2
left,left,1,2.4416,MR,easy,10,ntoLpzjCrW,pool2
left,right,0,2.2812,MR,easy,11,ntoLpzjCrW,pool2
left,left,1,3.6433,MR,easy,12,ntoLpzjCrW,pool2
left,right,0,2.2101,MR,easy,13,ntoLpzjCrW,pool2
left,right,0,1.5927,MR,easy,14,ntoLpzjCrW,pool2
left,left,1,1.7509,MR,easy,15,ntoLpzjCrW,pool2
right,right,1,1.8086,MR,easy,16,ntoLpzjCrW,pool2
left,right,0,6.0488,MR,medium,1,ntoLpzjCrW,pool2
right,right,1,11.7467,MR,medium,2,ntoLpzjCrW,pool2
right,right,1,5.7425,MR,medium,3,ntoLpzjCrW,pool2
left,right,0,7.8567,MR,medium,4,ntoLpzjCrW,pool2
right,right,1,8.2227,MR,medium,5,ntoLpzjCrW,pool2
right,right,1,7.8772,MR,medium,6,ntoLpzjCrW,pool2
left,right,0,2.4101,MR,medium,7,ntoLpzjCrW,pool2
left,left,1,11.5156,MR,medium,8,ntoLpzjCrW,pool2
right,right,1,5.8579,MR,medium,9,ntoLpzjCrW,pool2
right,right,1,11.681,MR,medium,10,ntoLpzjCrW,pool2
right,left,0,11.0646,MR,medium,11,ntoLpzjCrW,pool2
right,left,0,7.9749,MR,medium,12,ntoLpzjCrW,pool2
left,right,0,10.063,MR,medium,13,ntoLpzjCrW,pool2
left,right,0,2.7155,MR,medium,14,ntoLpzjCrW,pool2
left,right,0,7.0498,MR,medium,15,ntoLpzjCrW,pool2
right,left,0,3.2592,MR,medium,16,ntoLpzjCrW,pool2
left,right,0,5.2999,MR,hard,1,ntoLpzjCrW,pool2
right,right,1,8.1657,MR,hard,2,ntoLpzjCrW,pool2
left,left,1,5.7081,MR,hard,3,ntoLpzjCrW,pool2
right,right,1,7.224,MR,hard,4,ntoLpzjCrW,pool2
left,right,0,4.9984,MR,hard,5,ntoLpzjCrW,pool2
right,left,0,4.8906,MR,hard,6,ntoLpzjCrW,pool2
right,right,1,3.6997,MR,hard,7,ntoLpzjCrW,pool2
left,right,0,4.0247,MR,hard,8,ntoLpzjCrW,pool2
right,right,1,7.282,MR,hard,9,ntoLpzjCrW,pool2
right,left,0,4.7887,MR,hard,10,ntoLpzjCrW,pool2
left,right,0,1.9095,MR,hard,11,ntoLpzjCrW,pool2
left,right,0,3.2014,MR,hard,12,ntoLpzjCrW,pool2
left,left,1,6.8251,MR,hard,13,ntoLpzjCrW,pool2
right,left,0,3.6259,MR,hard,14,ntoLpzjCrW,pool2
left,right,0,2.3423,MR,hard,15,ntoLpzjCrW,pool2
right,right,1,3.2452,MR,hard,16,ntoLpzjCrW,pool2
left,right,0,6.8555,MR,easy,1,12zOSfawTO,pool2
left,right,0,8.3622,MR,easy,2,12zOSfawTO,pool2
left,right,0,2.7199,MR,easy,3,12zOSfawTO,pool2
right,right,1,3.4351,MR,easy,4,12zOSfawTO,pool2
left,right,0,4.2407,MR,easy,5,12zOSfawTO,pool2
right,right,1,3.3287,MR,easy,6,12zOSfawTO,pool2
right,right,1,3.0153,MR,easy,7,12zOSfawTO,pool2
right,right,1,2.6068,MR,easy,8,12zOSfawTO,pool2
left,left,1,2.7063,MR,easy,9,12zOSfawTO,pool2
right,left,0,3.2144,MR,easy,10,12zOSfawTO,pool2
left,right,0,6.5752,MR,easy,11,12zOSfawTO,pool2
right,right,1,2.4729,MR,easy,12,12zOSfawTO,pool2
right,right,1,2.788,MR,easy,13,12zOSfawTO,pool2
right,right,1,1.3426,MR,easy,14,12zOSfawTO,pool2
right,right,1,3.1862,MR,easy,15,12zOSfawTO,pool2
right,left,0,4.2098,MR,easy,16,12zOSfawTO,pool2
left,left,1,26.5215,MR,medium,1,12zOSfawTO,pool2
left,right,0,18.2733,MR,medium,2,12zOSfawTO,pool2
right,right,1,15.5442,MR,medium,3,12zOSfawTO,pool2
right,right,1,11.5308,MR,medium,4,12zOSfawTO,pool2
right,right,1,9.6851,MR,medium,5,12zOSfawTO,pool2
right,right,1,8.8504,MR,medium,6,12zOSfawTO,pool2
right,right,1,10.4008,MR,medium,7,12zOSfawTO,pool2
left,left,1,4.9483,MR,medium,8,12zOSfawTO,pool2
right,left,0,12.8775,MR,medium,9,12zOSfawTO,pool2
right,left,0,3.3019,MR,medium,10,12zOSfawTO,pool2
right,left,0,3.3889,MR,medium,11,12zOSfawTO,pool2
left,left,1,1.9648,MR,medium,12,12zOSfawTO,pool2
right,left,0,1.9664,MR,medium,13,12zOSfawTO,pool2
left,left,1,2.2729,MR,medium,14,12zOSfawTO,pool2
right,left,0,5.6666,MR,medium,15,12zOSfawTO,pool2
right,left,0,2.1712,MR,medium,16,12zOSfawTO,pool2
right,right,1,3.7316,MR,hard,1,12zOSfawTO,pool2
right,right,1,4.6425,MR,hard,2,12zOSfawTO,pool2
right,left,0,2.6668,MR,hard,3,12zOSfawTO,pool2
right,right,1,2.2704,MR,hard,4,12zOSfawTO,pool2
right,right,1,3.9136,MR,hard,5,12zOSfawTO,pool2
right,right,1,2.4648,MR,hard,6,12zOSfawTO,pool2
right,left,0,2.5841,MR,hard,7,12zOSfawTO,pool2
right,right,1,3.1901,MR,hard,8,12zOSfawTO,pool2
right,right,1,3.3027,MR,hard,9,12zOSfawTO,pool2
right,right,1,1.6567,MR,hard,10,12zOSfawTO,pool2
left,left,1,5.236,MR,hard,11,12zOSfawTO,pool2
left,left,1,3.2018,MR,hard,12,12zOSfawTO,pool2
right,left,0,2.6823,MR,hard,13,12zOSfawTO,pool2
right,left,0,2.1503,MR,hard,14,12zOSfawTO,pool2
right,left,0,2.4513,MR,hard,15,12zOSfawTO,pool2
left,left,1,2.1453,MR,hard,16,12zOSfawTO,pool2
right,right,1,3.2688,MR,easy,1,DVCsNitb7p,pool2
left,right,0,3.8509,MR,easy,2,DVCsNitb7p,pool2
right,right,1,7.3685,MR,easy,3,DVCsNitb7p,pool2
right,right,1,2.6684,MR,easy,4,DVCsNitb7p,pool2
right,right,1,3.0004,MR,easy,5,DVCsNitb7p,pool2
left,right,0,2.2673,MR,easy,6,DVCsNitb7p,pool2
right,right,1,4.9682,MR,easy,7,DVCsNitb7p,pool2
left,right,0,4.3998,MR,easy,8,DVCsNitb7p,pool2
left,right,0,1.4023,MR,easy,9,DVCsNitb7p,pool2
right,left,0,1.767,MR,easy,10,DVCsNitb7p,pool2
right,right,1,3.7666,MR,easy,11,DVCsNitb7p,pool2
right,right,1,3.934,MR,easy,12,DVCsNitb7p,pool2
right,left,0,3.4164,MR,easy,13,DVCsNitb7p,pool2
right,right,1,7.5836,MR,easy,14,DVCsNitb7p,pool2
right,right,1,2.9667,MR,easy,15,DVCsNitb7p,pool2
right,right,1,1.8348,MR,easy,16,DVCsNitb7p,pool2
right,right,1,8.52,MR,medium,1,DVCsNitb7p,pool2
right,left,0,4.1164,MR,medium,2,DVCsNitb7p,pool2
left,right,0,5.6836,MR,medium,3,DVCsNitb7p,pool2
right,right,1,1.8342,MR,medium,4,DVCsNitb7p,pool2
right,right,1,1.2681,MR,medium,5,DVCsNitb7p,pool2
left,right,0,1.3503,MR,medium,6,DVCsNitb7p,pool2
left,left,1,8.9669,MR,medium,7,DVCsNitb7p,pool2
right,left,0,1.75,MR,medium,8,DVCsNitb7p,pool2
left,left,1,4.5679,MR,medium,9,DVCsNitb7p,pool2
right,left,0,7.3005,MR,medium,10,DVCsNitb7p,pool2
right,left,0,4.2852,MR,medium,11,DVCsNitb7p,pool2
left,right,0,5.2343,MR,medium,12,DVCsNitb7p,pool2
right,right,1,9.1506,MR,medium,13,DVCsNitb7p,pool2
right,left,0,4.0005,MR,medium,14,DVCsNitb7p,pool2
left,right,0,1.4506,MR,medium,15,DVCsNitb7p,pool2
right,right,1,2.367,MR,medium,16,DVCsNitb7p,pool2
left,right,0,3.3671,MR,hard,1,DVCsNitb7p,pool2
right,left,0,8.5828,MR,hard,2,DVCsNitb7p,pool2
left,right,0,9.7851,MR,hard,3,DVCsNitb7p,pool2
right,right,1,9.3843,MR,hard,4,DVCsNitb7p,pool2
right,right,1,19.9839,MR,hard,5,DVCsNitb7p,pool2
right,right,1,8.4513,MR,hard,6,DVCsNitb7p,pool2
right,left,0,2.0005,MR,hard,7,DVCsNitb7p,pool2
left,left,1,3.2008,MR,hard,8,DVCsNitb7p,pool2
right,left,0,7.0174,MR,hard,9,DVCsNitb7p,pool2
right,left,0,3.2182,MR,hard,10,DVCsNitb7p,pool2
left,left,1,2.8685,MR,hard,11,DVCsNitb7p,pool2
right,right,1,1.5676,MR,hard,12,DVCsNitb7p,pool2
right,left,0,3.8671,MR,hard,13,DVCsNitb7p,pool2
left,left,1,2.7508,MR,hard,14,DVCsNitb7p,pool2
left,left,1,1.5497,MR,hard,15,DVCsNitb7p,pool2
left,left,1,2.2673,MR,hard,16,DVCsNitb7p,pool2
right,right,1,2.0582,MR,easy,1,sPXXgeOo7t,pool2
right,right,1,3.945,MR,easy,2,sPXXgeOo7t,pool2
right,right,1,5.2167,MR,easy,3,sPXXgeOo7t,pool2
left,left,1,6.0569,MR,easy,4,sPXXgeOo7t,pool2
left,left,1,4.9995,MR,easy,5,sPXXgeOo7t,pool2
left,left,1,11.6466,MR,easy,6,sPXXgeOo7t,pool2
right,right,1,6.5945,MR,easy,7,sPXXgeOo7t,pool2
right,right,1,2.4648,MR,easy,8,sPXXgeOo7t,pool2
left,left,1,1.5067,MR,easy,9,sPXXgeOo7t,pool2
left,right,0,1.9916,MR,easy,10,sPXXgeOo7t,pool2
left,left,1,1.383,MR,easy,11,sPXXgeOo7t,pool2
right,right,1,2.785,MR,easy,12,sPXXgeOo7t,pool2
right,left,0,1.8962,MR,easy,13,sPXXgeOo7t,pool2
left,left,1,3.2018,MR,easy,14,sPXXgeOo7t,pool2
right,right,1,1.3338,MR,easy,15,sPXXgeOo7t,pool2
left,left,1,4.0063,MR,easy,16,sPXXgeOo7t,pool2
left,right,0,4.7628,MR,medium,1,sPXXgeOo7t,pool2
right,right,1,9.1974,MR,medium,2,sPXXgeOo7t,pool2
right,right,1,1.4468,MR,medium,3,sPXXgeOo7t,pool2
left,left,1,4.291,MR,medium,4,sPXXgeOo7t,pool2
right,right,1,1.3271,MR,medium,5,sPXXgeOo7t,pool2
left,left,1,1.1377,MR,medium,6,sPXXgeOo7t,pool2
right,right,1,0.6237,MR,medium,7,sPXXgeOo7t,pool2
left,left,1,9.6924,MR,medium,8,sPXXgeOo7t,pool2
left,left,1,1.742,MR,medium,9,sPXXgeOo7t,pool2
left,left,1,12.2311,MR,medium,10,sPXXgeOo7t,pool2
left,left,1,0.9332,MR,medium,11,sPXXgeOo7t,pool2
left,right,0,2.6105,MR,medium,12,sPXXgeOo7t,pool2
left,right,0,1.3817,MR,medium,13,sPXXgeOo7t,pool2
right,right,1,5.4039,MR,medium,14,sPXXgeOo7t,pool2
left,right,0,9.3314,MR,medium,15,sPXXgeOo7t,pool2
right,right,1,4.6488,MR,medium,16,sPXXgeOo7t,pool2
right,right,1,6.7375,MR,hard,1,sPXXgeOo7t,pool2
right,right,1,6.4268,MR,hard,2,sPXXgeOo7t,pool2
left,right,0,1.0779,MR,hard,3,sPXXgeOo7t,pool2
right,right,1,3.8596,MR,hard,4,sPXXgeOo7t,pool2
right,right,1,2.0518,MR,hard,5,sPXXgeOo7t,pool2
right,right,1,7.1543,MR,hard,6,sPXXgeOo7t,pool2
left,right,0,1.0602,MR,hard,7,sPXXgeOo7t,pool2
right,right,1,5.9955,MR,hard,8,sPXXgeOo7t,pool2
left,right,0,4.0598,MR,hard,9,sPXXgeOo7t,pool2
left,left,1,7.8532,MR,hard,10,sPXXgeOo7t,pool2
right,left,0,2.1155,MR,hard,11,sPXXgeOo7t,pool2
left,left,1,8.4535,MR,hard,12,sPXXgeOo7t,pool2
right,left,0,5.3581,MR,hard,13,sPXXgeOo7t,pool2
right,right,1,3.6731,MR,hard,14,sPXXgeOo7t,pool2
right,left,0,2.6748,MR,hard,15,sPXXgeOo7t,pool2
left,left,1,2.2435,MR,hard,16,sPXXgeOo7t,pool2
left,left,1,5.4427,MR,easy,1,ujNKR4re1M,pool2
right,right,1,3.959,MR,easy,2,ujNKR4re1M,pool2
left,left,1,12.6705,MR,easy,3,ujNKR4re1M,pool2
left,right,0,7.4811,MR,easy,4,ujNKR4re1M,pool2
left,left,1,5.1241,MR,easy,5,ujNKR4re1M,pool2
left,left,1,6.1831,MR,easy,6,ujNKR4re1M,pool2
left,left,1,5.7536,MR,easy,7,ujNKR4re1M,pool2
right,right,1,7.6371,MR,easy,8,ujNKR4re1M,pool2
right,right,1,3.6439,MR,easy,9,ujNKR4re1M,pool2
right,right,1,4.2613,MR,easy,10,ujNKR4re1M,pool2
right,right,1,8.5201,MR,easy,11,ujNKR4re1M,pool2
right,right,1,4.8605,MR,easy,12,ujNKR4re1M,pool2
right,right,1,2.1717,MR,easy,13,ujNKR4re1M,pool2
left,left,1,5.604,MR,easy,14,ujNKR4re1M,pool2
left,left,1,3.9979,MR,easy,15,ujNKR4re1M,pool2
right,right,1,2.2606,MR,easy,16,ujNKR4re1M,pool2
right,right,1,10.5499,MR,medium,1,ujNKR4re1M,pool2
right,right,1,12.2534,MR,medium,2,ujNKR4re1M,pool2
right,right,1,22.1914,MR,medium,3,ujNKR4re1M,pool2
right,right,1,9.4428,MR,medium,4,ujNKR4re1M,pool2
left,left,1,13.6082,MR,medium,5,ujNKR4re1M,pool2
left,left,1,45.6307,MR,medium,6,ujNKR4re1M,pool2
left,left,1,16.5338,MR,medium,7,ujNKR4re1M,pool2
left,left,1,19.5047,MR,medium,8,ujNKR4re1M,pool2
right,right,1,13.0386,MR,medium,9,ujNKR4re1M,pool2
left,right,0,15.5806,MR,medium,10,ujNKR4re1M,pool2
right,right,1,8.0493,MR,medium,11,ujNKR4re1M,pool2
left,left,1,15.2772,MR,medium,12,ujNKR4re1M,pool2
right,right,1,11.777,MR,medium,13,ujNKR4re1M,pool2
left,left,1,6.1173,MR,medium,14,ujNKR4re1M,pool2
right,right,1,6.7719,MR,medium,15,ujNKR4re1M,pool2
right,right,1,4.2927,MR,medium,16,ujNKR4re1M,pool2
left,left,1,15.8622,MR,hard,1,ujNKR4re1M,pool2
right,left,0,4.2732,MR,hard,2,ujNKR4re1M,pool2
right,right,1,12.3204,MR,hard,3,ujNKR4re1M,pool2
right,right,1,13.0382,MR,hard,4,ujNKR4re1M,pool2
left,left,1,7.7395,MR,hard,5,ujNKR4re1M,pool2
left,left,1,21.575,MR,hard,6,ujNKR4re1M,pool2
left,left,1,11.5418,MR,hard,7,ujNKR4re1M,pool2
left,left,1,17.4776,MR,hard,8,ujNKR4re1M,pool2
left,left,1,28.6498,MR,hard,9,ujNKR4re1M,pool2
left,left,1,115.0904,MR,hard,10,ujNKR4re1M,pool2
left,right,0,18.5628,MR,hard,11,ujNKR4re1M,pool2
right,right,1,12.2592,MR,hard,12,ujNKR4re1M,pool2
left,left,1,6.5398,MR,hard,13,ujNKR4re1M,pool2
left,right,0,30.9878,MR,hard,14,ujNKR4re1M,pool2
left,left,1,21.0399,MR,hard,15,ujNKR4re1M,pool2
right,right,1,50.253,MR,hard,16,ujNKR4re1M,pool2
left,right,0,2.6074,MR,easy,1,8EBFmIUfAy,pool2
right,right,1,1.4876,MR,easy,2,8EBFmIUfAy,pool2
right,right,1,1.4871,MR,easy,3,8EBFmIUfAy,pool2
left,right,0,1.4933,MR,easy,4,8EBFmIUfAy,pool2
left,right,0,1.4915,MR,easy,5,8EBFmIUfAy,pool2
left,right,0,1.853,MR,easy,6,8EBFmIUfAy,pool2
right,right,1,1.1199,MR,easy,7,8EBFmIUfAy,pool2
left,right,0,1.4956,MR,easy,8,8EBFmIUfAy,pool2
left,right,0,1.1216,MR,easy,9,8EBFmIUfAy,pool2
right,right,1,1.1652,MR,easy,10,8EBFmIUfAy,pool2
right,right,1,1.1539,MR,easy,11,8EBFmIUfAy,pool2
right,right,1,1.1416,MR,easy,12,8EBFmIUfAy,pool2
right,right,1,0.8735,MR,easy,13,8EBFmIUfAy,pool2
left,right,0,1.1234,MR,easy,14,8EBFmIUfAy,pool2
right,right,1,1.1205,MR,easy,15,8EBFmIUfAy,pool2
left,right,0,1.122,MR,easy,16,8EBFmIUfAy,pool2
left,right,0,1.5025,MR,medium,1,8EBFmIUfAy,pool2
right,right,1,1.8626,MR,medium,2,8EBFmIUfAy,pool2
left,right,0,1.8573,MR,medium,3,8EBFmIUfAy,pool2
right,right,1,1.8494,MR,medium,4,8EBFmIUfAy,pool2
left,right,0,1.5056,MR,medium,5,8EBFmIUfAy,pool2
right,right,1,1.4929,MR,medium,6,8EBFmIUfAy,pool2
right,right,1,2.2234,MR,medium,7,8EBFmIUfAy,pool2
left,right,0,2.59,MR,medium,8,8EBFmIUfAy,pool2
left,left,1,4.0582,MR,medium,9,8EBFmIUfAy,pool2
left,left,1,2.5778,MR,medium,10,8EBFmIUfAy,pool2
left,right,0,2.2276,MR,medium,11,8EBFmIUfAy,pool2
left,right,0,2.2726,MR,medium,12,8EBFmIUfAy,pool2
left,right,0,3.5748,MR,medium,13,8EBFmIUfAy,pool2
right,right,1,4.2137,MR,medium,14,8EBFmIUfAy,pool2
right,left,0,5.5454,MR,medium,15,8EBFmIUfAy,pool2
left,left,1,4.4634,MR,medium,16,8EBFmIUfAy,pool2
left,right,0,3.6847,MR,hard,1,8EBFmIUfAy,pool2
right,right,1,4.1063,MR,hard,2,8EBFmIUfAy,pool2
right,right,1,3.324,MR,hard,3,8EBFmIUfAy,pool2
left,right,0,2.9595,MR,hard,4,8EBFmIUfAy,pool2
left,right,0,2.9405,MR,hard,5,8EBFmIUfAy,pool2
right,right,1,2.2959,MR,hard,6,8EBFmIUfAy,pool2
left,right,0,4.0389,MR,hard,7,8EBFmIUfAy,pool2
left,left,1,2.2936,MR,hard,8,8EBFmIUfAy,pool2
right,left,0,1.6914,MR,hard,9,8EBFmIUfAy,pool2
left,left,1,2.9555,MR,hard,10,8EBFmIUfAy,pool2
left,left,1,2.9776,MR,hard,11,8EBFmIUfAy,pool2
right,left,0,3.6988,MR,hard,12,8EBFmIUfAy,pool2
left,right,0,5.874,MR,hard,13,8EBFmIUfAy,pool2
left,right,0,3.7376,MR,hard,14,8EBFmIUfAy,pool2
left,right,0,1.8634,MR,hard,15,8EBFmIUfAy,pool2
left,right,0,1.8657,MR,hard,16,8EBFmIUfAy,pool2
left,left,1,2.5941,MR,easy,1,aqEAPJJI8e,pool34
left,right,0,1.8017,MR,easy,2,aqEAPJJI8e,pool34
right,right,1,3.0025,MR,easy,3,aqEAPJJI8e,pool34
right,left,0,2.6522,MR,easy,4,aqEAPJJI8e,pool34
right,right,1,1.3708,MR,easy,5,aqEAPJJI8e,pool34
left,left,1,1.5006,MR,easy,6,aqEAPJJI8e,pool34
left,right,0,1.8349,MR,easy,7,aqEAPJJI8e,pool34
left,left,1,4.5848,MR,easy,8,aqEAPJJI8e,pool34
right,right,1,1.5982,MR,easy,9,aqEAPJJI8e,pool34
right,right,1,3.8689,MR,easy,10,aqEAPJJI8e,pool34
right,right,1,2.2588,MR,easy,11,aqEAPJJI8e,pool34
right,left,0,2.252,MR,easy,12,aqEAPJJI8e,pool34
right,left,0,3.7694,MR,easy,13,aqEAPJJI8e,pool34
right,left,0,1.8688,MR,easy,14,aqEAPJJI8e,pool34
right,left,0,2.0686,MR,easy,15,aqEAPJJI8e,pool34
right,left,0,2.7521,MR,easy,16,aqEAPJJI8e,pool34
right,right,1,1.5412,MR,medium,1,aqEAPJJI8e,pool34
right,left,0,1.3847,MR,medium,2,aqEAPJJI8e,pool34
right,right,1,1.3233,MR,medium,3,aqEAPJJI8e,pool34
left,right,0,1.661,MR,medium,4,aqEAPJJI8e,pool34
right,left,0,1.1388,MR,medium,5,aqEAPJJI8e,pool34
right,left,0,1.4264,MR,medium,6,aqEAPJJI8e,pool34
right,right,1,1.4895,MR,medium,7,aqEAPJJI8e,pool34
left,right,0,1.124,MR,medium,8,aqEAPJJI8e,pool34
left,right,0,1.1254,MR,medium,9,aqEAPJJI8e,pool34
right,left,0,1.2006,MR,medium,10,aqEAPJJI8e,pool34
left,right,0,1.0671,MR,medium,11,aqEAPJJI8e,pool34
left,left,1,2.0344,MR,medium,12,aqEAPJJI8e,pool34
left,left,1,1.4175,MR,medium,13,aqEAPJJI8e,pool34
right,right,1,1.8079,MR,medium,14,aqEAPJJI8e,pool34
left,right,0,1.2896,MR,medium,15,aqEAPJJI8e,pool34
left,left,1,1.3186,MR,medium,16,aqEAPJJI8e,pool34
left,left,1,3.4314,MR,hard,1,aqEAPJJI8e,pool34
left,left,1,1.9022,MR,hard,2,aqEAPJJI8e,pool34
left,left,1,1.3191,MR,hard,3,aqEAPJJI8e,pool34
left,right,0,1.6517,MR,hard,4,aqEAPJJI8e,pool34
left,right,0,1.4345,MR,hard,5,aqEAPJJI8e,pool34
left,left,1,1.4522,MR,hard,6,aqEAPJJI8e,pool34
left,left,1,1.2016,MR,hard,7,aqEAPJJI8e,pool34
left,right,0,2.6689,MR,hard,8,aqEAPJJI8e,pool34
left,right,0,1.5184,MR,hard,9,aqEAPJJI8e,pool34
right,left,0,2.1182,MR,hard,10,aqEAPJJI8e,pool34
right,left,0,1.2849,MR,hard,11,aqEAPJJI8e,pool34
right,left,0,1.3349,MR,hard,12,aqEAPJJI8e,pool34
left,left,1,1.3182,MR,hard,13,aqEAPJJI8e,pool34
right,left,0,1.5017,MR,hard,14,aqEAPJJI8e,pool34
left,left,1,2.1543,MR,hard,15,aqEAPJJI8e,pool34
right,right,1,1.2831,MR,hard,16,aqEAPJJI8e,pool34
left,right,0,1.6661,MR,easy,1,rh40WUcVcA,pool34
left,right,0,0.8424,MR,easy,2,rh40WUcVcA,pool34
right,right,1,0.8806,MR,easy,3,rh40WUcVcA,pool34
left,right,0,1.0565,MR,easy,4,rh40WUcVcA,pool34
left,right,0,0.8466,MR,easy,5,rh40WUcVcA,pool34
left,right,0,0.8493,MR,easy,6,rh40WUcVcA,pool34
right,right,1,0.6414,MR,easy,7,rh40WUcVcA,pool34
right,right,1,0.8512,MR,easy,8,rh40WUcVcA,pool34
right,right,1,0.844,MR,easy,9,rh40WUcVcA,pool34
right,right,1,0.848,MR,easy,10,rh40WUcVcA,pool34
right,right,1,0.8527,MR,easy,11,rh40WUcVcA,pool34
right,right,1,1.0552,MR,easy,12,rh40WUcVcA,pool34
left,right,0,1.0408,MR,easy,13,rh40WUcVcA,pool34
right,right,1,0.8425,MR,easy,14,rh40WUcVcA,pool34
right,right,1,0.8456,MR,easy,15,rh40WUcVcA,pool34
left,right,0,0.8499,MR,easy,16,rh40WUcVcA,pool34
right,right,1,2.7015,MR,medium,1,rh40WUcVcA,pool34
left,right,0,0.8437,MR,medium,2,rh40WUcVcA,pool34
right,right,1,0.6499,MR,medium,3,rh40WUcVcA,pool34
right,right,1,0.6441,MR,medium,4,rh40WUcVcA,pool34
left,right,0,0.6506,MR,medium,5,rh40WUcVcA,pool34
right,right,1,0.6407,MR,medium,6,rh40WUcVcA,pool34
right,right,1,0.6535,MR,medium,7,rh40WUcVcA,pool34
right,right,1,1.0573,MR,medium,8,rh40WUcVcA,pool34
left,right,0,0.6462,MR,medium,9,rh40WUcVcA,pool34
right,right,1,0.6472,MR,medium,10,rh40WUcVcA,pool34
right,right,1,0.6504,MR,medium,11,rh40WUcVcA,pool34
left,right,0,1.0548,MR,medium,12,rh40WUcVcA,pool34
right,right,1,2.2932,MR,medium,13,rh40WUcVcA,pool34
left,right,0,2.072,MR,medium,14,rh40WUcVcA,pool34
left,right,0,1.0628,MR,medium,15,rh40WUcVcA,pool34
right,right,1,0.8483,MR,medium,16,rh40WUcVcA,pool34
right,right,1,1.9181,MR,hard,1,rh40WUcVcA,pool34
left,right,0,1.4678,MR,hard,2,rh40WUcVcA,pool34
left,right,0,1.8741,MR,hard,3,rh40WUcVcA,pool34
left,right,0,3.2995,MR,hard,4,rh40WUcVcA,pool34
left,right,0,4.6018,MR,hard,5,rh40WUcVcA,pool34
left,right,0,4.7972,MR,hard,6,rh40WUcVcA,pool34
right,right,1,4.9577,MR,hard,7,rh40WUcVcA,pool34
right,right,1,1.6676,MR,hard,8,rh40WUcVcA,pool34
left,right,0,5.1697,MR,hard,9,rh40WUcVcA,pool34
right,right,1,1.4685,MR,hard,10,rh40WUcVcA,pool34
left,right,0,1.0523,MR,hard,11,rh40WUcVcA,pool34
right,right,1,1.672,MR,hard,12,rh40WUcVcA,pool34
right,right,1,1.0527,MR,hard,13,rh40WUcVcA,pool34
right,right,1,0.8513,MR,hard,14,rh40WUcVcA,pool34
left,right,0,1.0575,MR,hard,15,rh40WUcVcA,pool34
left,right,0,1.26,MR,hard,16,rh40WUcVcA,pool34
right,right,1,1.5738,MR,easy,1,ky7vtw0gdz,pool34
left,right,0,0.15,MR,easy,2,ky7vtw0gdz,pool34
right,right,1,0.0946,MR,easy,3,ky7vtw0gdz,pool34
right,right,1,0.0708,MR,easy,4,ky7vtw0gdz,pool34
left,left,1,0.0353,MR,easy,5,ky7vtw0gdz,pool34
right,left,0,0.0086,MR,easy,6,ky7vtw0gdz,pool34
left,left,1,0.1165,MR,easy,7,ky7vtw0gdz,pool34
right,right,1,0.093,MR,easy,8,ky7vtw0gdz,pool34
right,right,1,0.0866,MR,easy,9,ky7vtw0gdz,pool34
left,right,0,0.1276,MR,easy,10,ky7vtw0gdz,pool34
left,left,1,1.133,MR,easy,11,ky7vtw0gdz,pool34
left,left,1,0.1992,MR,easy,12,ky7vtw0gdz,pool34
right,left,0,0.1235,MR,easy,13,ky7vtw0gdz,pool34
right,left,0,0.0989,MR,easy,14,ky7vtw0gdz,pool34
left,right,0,0.0308,MR,easy,15,ky7vtw0gdz,pool34
left,right,0,0.0077,MR,easy,16,ky7vtw0gdz,pool34
right,right,1,3.4694,MR,medium,1,ky7vtw0gdz,pool34
left,right,0,9.1956,MR,medium,2,ky7vtw0gdz,pool34
left,right,0,7.4962,MR,medium,3,ky7vtw0gdz,pool34
left,left,1,5.1487,MR,medium,4,ky7vtw0gdz,pool34
left,left,1,3.3138,MR,medium,5,ky7vtw0gdz,pool34
left,right,0,12.1463,MR,medium,6,ky7vtw0gdz,pool34
right,right,1,2.6012,MR,medium,7,ky7vtw0gdz,pool34
left,right,0,9.6499,MR,medium,8,ky7vtw0gdz,pool34
left,left,1,1.8126,MR,medium,9,ky7vtw0gdz,pool34
right,left,0,8.5839,MR,medium,10,ky7vtw0gdz,pool34
left,right,0,7.7962,MR,medium,11,ky7vtw0gdz,pool34
right,right,1,7.7823,MR,medium,12,ky7vtw0gdz,pool34
left,right,0,8.7269,MR,medium,13,ky7vtw0gdz,pool34
right,left,0,1.1735,MR,medium,14,ky7vtw0gdz,pool34
left,right,0,3.6683,MR,medium,15,ky7vtw0gdz,pool34
right,right,1,2.073,MR,medium,16,ky7vtw0gdz,pool34
left,right,0,4.568,MR,hard,1,ky7vtw0gdz,pool34
right,right,1,9.3662,MR,hard,2,ky7vtw0gdz,pool34
left,right,0,8.5311,MR,hard,3,ky7vtw0gdz,pool34
left,right,0,13.4322,MR,hard,4,ky7vtw0gdz,pool34
left,left,1,10.6456,MR,hard,5,ky7vtw0gdz,pool34
right,left,0,4.9621,MR,hard,6,ky7vtw0gdz,pool34
left,right,0,9.643,MR,hard,7,ky7vtw0gdz,pool34
right,left,0,11.1101,MR,hard,8,ky7vtw0gdz,pool34
right,right,1,12.7268,MR,hard,9,ky7vtw0gdz,pool34
right,right,1,11.461,MR,hard,10,ky7vtw0gdz,pool34
left,left,1,10.2305,MR,hard,11,ky7vtw0gdz,pool34
right,left,0,7.4964,MR,hard,12,ky7vtw0gdz,pool34
right,right,1,31.9844,MR,hard,13,ky7vtw0gdz,pool34
right,left,0,1.6759,MR,hard,14,ky7vtw0gdz,pool34
left,right,0,23.3808,MR,hard,15,ky7vtw0gdz,pool34
left,left,1,4.1752,MR,hard,16,ky7vtw0gdz,pool34
right,right,1,4.1922,MR,easy,1,zvDM8Go5Bd,pool34
left,right,0,4.7557,MR,easy,2,zvDM8Go5Bd,pool34
left,right,0,4.1225,MR,easy,3,zvDM8Go5Bd,pool34
right,right,1,4.8104,MR,easy,4,zvDM8Go5Bd,pool34
right,right,1,6.8985,MR,easy,5,zvDM8Go5Bd,pool34
left,right,0,8.9953,MR,easy,6,zvDM8Go5Bd,pool34
right,right,1,4.1815,MR,easy,7,zvDM8Go5Bd,pool34
left,right,0,3.7003,MR,easy,8,zvDM8Go5Bd,pool34
right,right,1,5.841,MR,easy,9,zvDM8Go5Bd,pool34
right,right,1,3.6135,MR,easy,10,zvDM8Go5Bd,pool34
right,right,1,4.7349,MR,easy,11,zvDM8Go5Bd,pool34
left,right,0,4.0159,MR,easy,12,zvDM8Go5Bd,pool34
left,right,0,7.8129,MR,easy,13,zvDM8Go5Bd,pool34
right,right,1,4.1546,MR,easy,14,zvDM8Go5Bd,pool34
right,right,1,4.6095,MR,easy,15,zvDM8Go5Bd,pool34
left,right,0,8.0763,MR,easy,16,zvDM8Go5Bd,pool34
left,right,0,3.9605,MR,medium,1,zvDM8Go5Bd,pool34
left,right,0,3.3298,MR,medium,2,zvDM8Go5Bd,pool34
right,left,0,10.048,MR,medium,3,zvDM8Go5Bd,pool34
right,right,1,8.7181,MR,medium,4,zvDM8Go5Bd,pool34
right,left,0,8.0339,MR,medium,5,zvDM8Go5Bd,pool34
right,right,1,8.472,MR,medium,6,zvDM8Go5Bd,pool34
left,left,1,12.9062,MR,medium,7,zvDM8Go5Bd,pool34
left,right,0,6.0774,MR,medium,8,zvDM8Go5Bd,pool34
left,left,1,9.7449,MR,medium,9,zvDM8Go5Bd,pool34
left,right,0,11.8164,MR,medium,10,zvDM8Go5Bd,pool34
right,right,1,5.8806,MR,medium,11,zvDM8Go5Bd,pool34
right,right,1,8.0378,MR,medium,12,zvDM8Go5Bd,pool34
right,right,1,9.705,MR,medium,13,zvDM8Go5Bd,pool34
right,right,1,10.5613,MR,medium,14,zvDM8Go5Bd,pool34
right,left,0,9.6719,MR,medium,15,zvDM8Go5Bd,pool34
right,right,1,10.5689,MR,medium,16,zvDM8Go5Bd,pool34
right,right,1,4.7021,MR,hard,1,zvDM8Go5Bd,pool34
right,left,0,2.8786,MR,hard,2,zvDM8Go5Bd,pool34
left,left,1,3.0581,MR,hard,3,zvDM8Go5Bd,pool34
left,right,0,10.1607,MR,hard,4,zvDM8Go5Bd,pool34
left,right,0,5.3917,MR,hard,5,zvDM8Go5Bd,pool34
left,left,1,7.2449,MR,hard,6,zvDM8Go5Bd,pool34
left,right,0,5.102,MR,hard,7,zvDM8Go5Bd,pool34
right,right,1,6.6711,MR,hard,8,zvDM8Go5Bd,pool34
left,right,0,4.5154,MR,hard,9,zvDM8Go5Bd,pool34
right,right,1,6.193,MR,hard,10,zvDM8Go5Bd,pool34
right,left,0,3.7727,MR,hard,11,zvDM8Go5Bd,pool34
left,right,0,7.3873,MR,hard,12,zvDM8Go5Bd,pool34
right,right,1,5.8691,MR,hard,13,zvDM8Go5Bd,pool34
left,left,1,4.7566,MR,hard,14,zvDM8Go5Bd,pool34
right,left,0,4.3233,MR,hard,15,zvDM8Go5Bd,pool34
left,right,0,5.6213,MR,hard,16,zvDM8Go5Bd,pool34
right,right,1,17.129,MR,easy,1,7SltMY2Jba,pool34
left,left,1,4.376,MR,easy,2,7SltMY2Jba,pool34
left,right,0,19.433,MR,easy,3,7SltMY2Jba,pool34
right,right,1,4.688,MR,easy,4,7SltMY2Jba,pool34
right,right,1,8.288,MR,easy,5,7SltMY2Jba,pool34
right,right,1,9.714,MR,easy,6,7SltMY2Jba,pool34
right,right,1,6.15,MR,easy,7,7SltMY2Jba,pool34
left,left,1,10.376,MR,easy,8,7SltMY2Jba,pool34
left,left,1,7.784,MR,easy,9,7SltMY2Jba,pool34
left,left,1,3.043,MR,easy,10,7SltMY2Jba,pool34
left,left,1,5.503,MR,easy,11,7SltMY2Jba,pool34
left,left,1,3.333,MR,easy,12,7SltMY2Jba,pool34
left,left,1,23.73,MR,easy,13,7SltMY2Jba,pool34
right,right,1,9.664,MR,easy,14,7SltMY2Jba,pool34
left,left,1,7.203,MR,easy,15,7SltMY2Jba,pool34
right,right,1,5.945,MR,easy,16,7SltMY2Jba,pool34
right,right,1,13.64,MR,medium,1,7SltMY2Jba,pool34
left,left,1,9.907,MR,medium,2,7SltMY2Jba,pool34
right,left,0,9.758,MR,medium,3,7SltMY2Jba,pool34
right,left,0,13.682,MR,medium,4,7SltMY2Jba,pool34
left,left,1,23.559,MR,medium,5,7SltMY2Jba,pool34
right,left,0,27.934,MR,medium,6,7SltMY2Jba,pool34
left,left,1,9.15,MR,medium,7,7SltMY2Jba,pool34
right,right,1,13.342,MR,medium,8,7SltMY2Jba,pool34
left,left,1,6.824,MR,medium,9,7SltMY2Jba,pool34
right,right,1,7.18,MR,medium,10,7SltMY2Jba,pool34
right,right,1,8.039,MR,medium,11,7SltMY2Jba,pool34
right,right,1,29.513,MR,medium,12,7SltMY2Jba,pool34
right,right,1,12.213,MR,medium,13,7SltMY2Jba,pool34
left,right,0,9.172,MR,medium,14,7SltMY2Jba,pool34
left,left,1,7.369,MR,medium,15,7SltMY2Jba,pool34
right,right,1,8.144,MR,medium,16,7SltMY2Jba,pool34
left,left,1,14.977,MR,hard,1,7SltMY2Jba,pool34
left,left,1,18.258,MR,hard,2,7SltMY2Jba,pool34
right,left,0,38.848,MR,hard,3,7SltMY2Jba,pool34
right,right,1,19.548,MR,hard,4,7SltMY2Jba,pool34
right,left,0,9.672,MR,hard,5,7SltMY2Jba,pool34
right,left,0,22.761,MR,hard,6,7SltMY2Jba,pool34
right,right,1,24.34,MR,hard,7,7SltMY2Jba,pool34
left,right,0,13.954,MR,hard,8,7SltMY2Jba,pool34
left,left,1,6.116,MR,hard,9,7SltMY2Jba,pool34
left,left,1,28.597,MR,hard,10,7SltMY2Jba,pool34
right,right,1,20.166,MR,hard,11,7SltMY2Jba,pool34
right,right,1,14.665,MR,hard,12,7SltMY2Jba,pool34
right,left,0,18.148,MR,hard,13,7SltMY2Jba,pool34
right,right,1,34.49,MR,hard,14,7SltMY2Jba,pool34
left,left,1,13.586,MR,hard,15,7SltMY2Jba,pool34
right,left,0,32.035,MR,hard,16,7SltMY2Jba,pool34
left,left,1,9.718,MR,easy,1,PbOEQpRS9f,pool34
right,right,1,1.738,MR,easy,2,PbOEQpRS9f,pool34
right,right,1,3.418,MR,easy,3,PbOEQpRS9f,pool34
right,right,1,2.335,MR,easy,4,PbOEQpRS9f,pool34
right,right,1,1.651,MR,easy,5,PbOEQpRS9f,pool34
right,right,1,1.585,MR,easy,6,PbOEQpRS9f,pool34
left,right,0,2.034,MR,easy,7,PbOEQpRS9f,pool34
left,right,0,7.808,MR,easy,8,PbOEQpRS9f,pool34
left,right,0,6.618,MR,easy,9,PbOEQpRS9f,pool34
left,left,1,4.256,MR,easy,10,PbOEQpRS9f,pool34
right,right,1,1.917,MR,easy,11,PbOEQpRS9f,pool34
right,right,1,1.587,MR,easy,12,PbOEQpRS9f,pool34
right,right,1,0.989,MR,easy,13,PbOEQpRS9f,pool34
left,right,0,1.807,MR,easy,14,PbOEQpRS9f,pool34
right,right,1,1.417,MR,easy,15,PbOEQpRS9f,pool34
right,right,1,0.918,MR,easy,16,PbOEQpRS9f,pool34
right,left,0,0.738,MR,medium,1,PbOEQpRS9f,pool34
left,right,0,0.404,MR,medium,2,PbOEQpRS9f,pool34
left,right,0,0.201,MR,medium,3,PbOEQpRS9f,pool34
left,left,1,0.42,MR,medium,4,PbOEQpRS9f,pool34
left,right,0,0.233,MR,medium,5,PbOEQpRS9f,pool34
right,left,0,0.385,MR,medium,6,PbOEQpRS9f,pool34
left,right,0,0.337,MR,medium,7,PbOEQpRS9f,pool34
left,left,1,0.307,MR,medium,8,PbOEQpRS9f,pool34
left,right,0,0.251,MR,medium,9,PbOEQpRS9f,pool34
right,left,0,0.284,MR,medium,10,PbOEQpRS9f,pool34
left,right,0,0.3,MR,medium,11,PbOEQpRS9f,pool34
left,right,0,0.302,MR,medium,12,PbOEQpRS9f,pool34
right,right,1,0.252,MR,medium,13,PbOEQpRS9f,pool34
left,right,0,0.235,MR,medium,14,PbOEQpRS9f,pool34
right,left,0,0.275,MR,medium,15,PbOEQpRS9f,pool34
left,left,1,0.235,MR,medium,16,PbOEQpRS9f,pool34
right,right,1,7.835,MR,hard,1,PbOEQpRS9f,pool34
right,left,0,3.489,MR,hard,2,PbOEQpRS9f,pool34
right,right,1,2.001,MR,hard,3,PbOEQpRS9f,pool34
left,right,0,892.007,MR,hard,4,PbOEQpRS9f,pool34
left,right,0,1.233,MR,hard,5,PbOEQpRS9f,pool34
left,right,0,1.051,MR,hard,6,PbOEQpRS9f,pool34
right,right,1,0.484,MR,hard,7,PbOEQpRS9f,pool34
left,right,0,0.45,MR,hard,8,PbOEQpRS9f,pool34
left,right,0,0.426,MR,hard,9,PbOEQpRS9f,pool34
right,right,1,0.605,MR,hard,10,PbOEQpRS9f,pool34
left,right,0,0.69,MR,hard,11,PbOEQpRS9f,pool34
left,right,0,0.692,MR,hard,12,PbOEQpRS9f,pool34
right,right,1,0.584,MR,hard,13,PbOEQpRS9f,pool34
right,right,1,0.451,MR,hard,14,PbOEQpRS9f,pool34
left,right,0,0.482,MR,hard,15,PbOEQpRS9f,pool34
left,left,1,0.535,MR,hard,16,PbOEQpRS9f,pool34
left,right,0,11.4725,MR,easy,1,yTPpr0532t,pool34
left,right,0,4.2051,MR,easy,2,yTPpr0532t,pool34
right,right,1,2.5298,MR,easy,3,yTPpr0532t,pool34
left,right,0,3.5247,MR,easy,4,yTPpr0532t,pool34
left,right,0,3.3638,MR,easy,5,yTPpr0532t,pool34
left,right,0,7.8588,MR,easy,6,yTPpr0532t,pool34
left,right,0,4.7976,MR,easy,7,yTPpr0532t,pool34
right,right,1,5.52,MR,easy,8,yTPpr0532t,pool34
left,right,0,3.3132,MR,easy,9,yTPpr0532t,pool34
left,right,0,11.1957,MR,easy,10,yTPpr0532t,pool34
right,right,1,4.5708,MR,easy,11,yTPpr0532t,pool34
left,right,0,7.3761,MR,easy,12,yTPpr0532t,pool34
right,right,1,4.5774,MR,easy,13,yTPpr0532t,pool34
right,right,1,6.9383,MR,easy,14,yTPpr0532t,pool34
left,right,0,2.5463,MR,easy,15,yTPpr0532t,pool34
right,right,1,3.4299,MR,easy,16,yTPpr0532t,pool34
left,right,0,6.0317,MR,medium,1,yTPpr0532t,pool34
right,left,0,13.9675,MR,medium,2,yTPpr0532t,pool34
right,right,1,21.181,MR,medium,3,yTPpr0532t,pool34
left,right,0,11.828,MR,medium,4,yTPpr0532t,pool34
right,right,1,15.098,MR,medium,5,yTPpr0532t,pool34
right,right,1,15.9703,MR,medium,6,yTPpr0532t,pool34
right,right,1,17.4829,MR,medium,7,yTPpr0532t,pool34
left,left,1,9.7532,MR,medium,8,yTPpr0532t,pool34
left,right,0,35.2723,MR,medium,9,yTPpr0532t,pool34
right,left,0,8.3688,MR,medium,10,yTPpr0532t,pool34
right,right,1,14.6161,MR,medium,11,yTPpr0532t,pool34
right,right,1,11.9974,MR,medium,12,yTPpr0532t,pool34
right,right,1,23.7614,MR,medium,13,yTPpr0532t,pool34
left,right,0,22.7847,MR,medium,14,yTPpr0532t,pool34
right,right,1,12.3792,MR,medium,15,yTPpr0532t,pool34
right,right,1,8.5849,MR,medium,16,yTPpr0532t,pool34
right,right,1,3.4681,MR,hard,1,yTPpr0532t,pool34
right,right,1,3.1373,MR,hard,2,yTPpr0532t,pool34
right,right,1,1.8196,MR,hard,3,yTPpr0532t,pool34
left,right,0,5.4898,MR,hard,4,yTPpr0532t,pool34
left,right,0,2.4387,MR,hard,5,yTPpr0532t,pool34
left,right,0,5.0329,MR,hard,6,yTPpr0532t,pool34
left,right,0,2.805,MR,hard,7,yTPpr0532t,pool34
left,right,0,2.5527,MR,hard,8,yTPpr0532t,pool34
left,right,0,3.7923,MR,hard,9,yTPpr0532t,pool34
left,right,0,4.1959,MR,hard,10,yTPpr0532t,pool34
left,right,0,3.5223,MR,hard,11,yTPpr0532t,pool34
right,right,1,4.6641,MR,hard,12,yTPpr0532t,pool34
right,right,1,3.7895,MR,hard,13,yTPpr0532t,pool34
right,right,1,3.1217,MR,hard,14,yTPpr0532t,pool34
left,right,0,3.1226,MR,hard,15,yTPpr0532t,pool34
right,right,1,5.0267,MR,hard,16,yTPpr0532t,pool34
left,left,1,6.0547,MR,easy,1,YlvUbMLU90,pool34
left,left,1,4.9168,MR,easy,2,YlvUbMLU90,pool34
right,left,0,5.7085,MR,easy,3,YlvUbMLU90,pool34
right,right,1,5.2349,MR,easy,4,YlvUbMLU90,pool34
left,left,1,5.4306,MR,easy,5,YlvUbMLU90,pool34
right,right,1,3.7362,MR,easy,6,YlvUbMLU90,pool34
right,right,1,2.1289,MR,easy,7,YlvUbMLU90,pool34
left,left,1,2.332,MR,easy,8,YlvUbMLU90,pool34
right,right,1,3.6506,MR,easy,9,YlvUbMLU90,pool34
right,right,1,3.5006,MR,easy,10,YlvUbMLU90,pool34
right,left,0,2.2764,MR,easy,11,YlvUbMLU90,pool34
left,left,1,2.6991,MR,easy,12,YlvUbMLU90,pool34
right,right,1,3.0345,MR,easy,13,YlvUbMLU90,pool34
right,right,1,2.9756,MR,easy,14,YlvUbMLU90,pool34
right,right,1,3.2956,MR,easy,15,YlvUbMLU90,pool34
right,right,1,2.4053,MR,easy,16,YlvUbMLU90,pool34
left,left,1,6.9846,MR,medium,1,YlvUbMLU90,pool34
left,left,1,4.1045,MR,medium,2,YlvUbMLU90,pool34
left,left,1,3.2135,MR,medium,3,YlvUbMLU90,pool34
right,left,0,3.784,MR,medium,4,YlvUbMLU90,pool34
left,left,1,2.4677,MR,medium,5,YlvUbMLU90,pool34
right,right,1,3.5489,MR,medium,6,YlvUbMLU90,pool34
right,left,0,6.4634,MR,medium,7,YlvUbMLU90,pool34
right,right,1,4.2803,MR,medium,8,YlvUbMLU90,pool34
right,left,0,5.2797,MR,medium,9,YlvUbMLU90,pool34
left,left,1,3.7583,MR,medium,10,YlvUbMLU90,pool34
left,left,1,4.0252,MR,medium,11,YlvUbMLU90,pool34
right,left,0,1.9471,MR,medium,12,YlvUbMLU90,pool34
left,left,1,1.5352,MR,medium,13,YlvUbMLU90,pool34
left,left,1,2.0856,MR,medium,14,YlvUbMLU90,pool34
left,left,1,1.6954,MR,medium,15,YlvUbMLU90,pool34
right,left,0,1.2641,MR,medium,16,YlvUbMLU90,pool34
right,left,0,4.2383,MR,hard,1,YlvUbMLU90,pool34
left,right,0,6.2057,MR,hard,2,YlvUbMLU90,pool34
right,right,1,2.7768,MR,hard,3,YlvUbMLU90,pool34
left,left,1,4.8171,MR,hard,4,YlvUbMLU90,pool34
left,left,1,3.0169,MR,hard,5,YlvUbMLU90,pool34
right,left,0,2.5159,MR,hard,6,YlvUbMLU90,pool34
right,right,1,5.2722,MR,hard,7,YlvUbMLU90,pool34
left,left,1,5.6987,MR,hard,8,YlvUbMLU90,pool34
right,left,0,4.3189,MR,hard,9,YlvUbMLU90,pool34
right,left,0,4.5019,MR,hard,10,YlvUbMLU90,pool34
left,left,1,5.0838,MR,hard,11,YlvUbMLU90,pool34
left,left,1,1.5259,MR,hard,12,YlvUbMLU90,pool34
right,left,0,2.5635,MR,hard,13,YlvUbMLU90,pool34
left,left,1,5.8035,MR,hard,14,YlvUbMLU90,pool34
left,left,1,3.0533,MR,hard,15,YlvUbMLU90,pool34
right,left,0,3.1425,MR,hard,16,YlvUbMLU90,pool34
right,right,1,10.413,MR,easy,1,WQyxRdU13t,pool34
right,right,1,6.438,MR,easy,2,WQyxRdU13t,pool34
left,left,1,29.02,MR,easy,3,WQyxRdU13t,pool34
right,right,1,8.139,MR,easy,4,WQyxRdU13t,pool34
right,right,1,8.825,MR,easy,5,WQyxRdU13t,pool34
left,left,1,11.929,MR,easy,6,WQyxRdU13t,pool34
left,left,1,12.777,MR,easy,7,WQyxRdU13t,pool34
right,right,1,12.492,MR,easy,8,WQyxRdU13t,pool34
left,left,1,14.571,MR,easy,9,WQyxRdU13t,pool34
right,right,1,15.252,MR,easy,10,WQyxRdU13t,pool34
left,left,1,4.079,MR,easy,11,WQyxRdU13t,pool34
right,right,1,10.359,MR,easy,12,WQyxRdU13t,pool34
right,right,1,9.467,MR,easy,13,WQyxRdU13t,pool34
left,left,1,8.842,MR,easy,14,WQyxRdU13t,pool34
right,right,1,6.408,MR,easy,15,WQyxRdU13t,pool34
left,left,1,3.885,MR,easy,16,WQyxRdU13t,pool34
right,right,1,6.314,MR,medium,1,WQyxRdU13t,pool34
left,left,1,11.174,MR,medium,2,WQyxRdU13t,pool34
right,right,1,7.367,MR,medium,3,WQyxRdU13t,pool34
right,right,1,8.373,MR,medium,4,WQyxRdU13t,pool34
left,left,1,4.907,MR,medium,5,WQyxRdU13t,pool34
left,left,1,11.384,MR,medium,6,WQyxRdU13t,pool34
left,left,1,20.177,MR,medium,7,WQyxRdU13t,pool34
right,right,1,39.256,MR,medium,8,WQyxRdU13t,pool34
left,left,1,22.106,MR,medium,9,WQyxRdU13t,pool34
left,left,1,6.046,MR,medium,10,WQyxRdU13t,pool34
right,right,1,6.869,MR,medium,11,WQyxRdU13t,pool34
left,left,1,8.798,MR,medium,12,WQyxRdU13t,pool34
left,left,1,15.534,MR,medium,13,WQyxRdU13t,pool34
right,right,1,6.644,MR,medium,14,WQyxRdU13t,pool34
left,left,1,21.793,MR,medium,15,WQyxRdU13t,pool34
left,left,1,15.944,MR,medium,16,WQyxRdU13t,pool34
right,right,1,27.691,MR,hard,1,WQyxRdU13t,pool34
right,right,1,28.775,MR,hard,2,WQyxRdU13t,pool34
left,left,1,19.33,MR,hard,3,WQyxRdU13t,pool34
right,right,1,33.252,MR,hard,4,WQyxRdU13t,pool34
right,right,1,35.881,MR,hard,5,WQyxRdU13t,pool34
left,left,1,49.848,MR,hard,6,WQyxRdU13t,pool34
right,right,1,21.608,MR,hard,7,WQyxRdU13t,pool34
right,right,1,21.287,MR,hard,8,WQyxRdU13t,pool34
left,left,1,40.711,MR,hard,9,WQyxRdU13t,pool34
left,left,1,17.473,MR,hard,10,WQyxRdU13t,pool34
left,left,1,42.846,MR,hard,11,WQyxRdU13t,pool34
right,right,1,14.685,MR,hard,12,WQyxRdU13t,pool34
left,right,0,97.348,MR,hard,13,WQyxRdU13t,pool34
right,right,1,17.369,MR,hard,14,WQyxRdU13t,pool34
left,left,1,30.414,MR,hard,15,WQyxRdU13t,pool34
right,right,1,36.025,MR,hard,16,WQyxRdU13t,pool34
right,right,1,2.3126,MR,easy,1,u8oFh0ZHHs,pool34
right,right,1,1.1195,MR,easy,2,u8oFh0ZHHs,pool34
right,right,1,0.8484,MR,easy,3,u8oFh0ZHHs,pool34
right,right,1,1.645,MR,easy,4,u8oFh0ZHHs,pool34
left,right,0,1.0348,MR,easy,5,u8oFh0ZHHs,pool34
left,right,0,1.1139,MR,easy,6,u8oFh0ZHHs,pool34
left,right,0,1.1004,MR,easy,7,u8oFh0ZHHs,pool34
left,right,0,1.316,MR,easy,8,u8oFh0ZHHs,pool34
right,right,1,3.7464,MR,easy,9,u8oFh0ZHHs,pool34
left,right,0,1.0798,MR,easy,10,u8oFh0ZHHs,pool34
right,right,1,0.9711,MR,easy,11,u8oFh0ZHHs,pool34
right,right,1,0.9182,MR,easy,12,u8oFh0ZHHs,pool34
left,right,0,0.9625,MR,easy,13,u8oFh0ZHHs,pool34
right,right,1,0.7949,MR,easy,14,u8oFh0ZHHs,pool34
right,right,1,0.8286,MR,easy,15,u8oFh0ZHHs,pool34
right,right,1,0.8966,MR,easy,16,u8oFh0ZHHs,pool34
right,right,1,1.4277,MR,medium,1,u8oFh0ZHHs,pool34
left,right,0,0.8831,MR,medium,2,u8oFh0ZHHs,pool34
right,right,1,0.8986,MR,medium,3,u8oFh0ZHHs,pool34
left,right,0,0.8465,MR,medium,4,u8oFh0ZHHs,pool34
right,right,1,1.3008,MR,medium,5,u8oFh0ZHHs,pool34
right,left,0,3.7913,MR,medium,6,u8oFh0ZHHs,pool34
right,right,1,1.9103,MR,medium,7,u8oFh0ZHHs,pool34
left,right,0,1.0604,MR,medium,8,u8oFh0ZHHs,pool34
right,right,1,0.9196,MR,medium,9,u8oFh0ZHHs,pool34
right,right,1,1.4529,MR,medium,10,u8oFh0ZHHs,pool34
left,right,0,1.0629,MR,medium,11,u8oFh0ZHHs,pool34
left,right,0,0.8566,MR,medium,12,u8oFh0ZHHs,pool34
left,right,0,1.28,MR,medium,13,u8oFh0ZHHs,pool34
left,right,0,1.1137,MR,medium,14,u8oFh0ZHHs,pool34
right,right,1,1.0443,MR,medium,15,u8oFh0ZHHs,pool34
left,right,0,0.8741,MR,medium,16,u8oFh0ZHHs,pool34
right,right,1,2.7009,MR,hard,1,u8oFh0ZHHs,pool34
right,right,1,2.9125,MR,hard,2,u8oFh0ZHHs,pool34
right,right,1,1.345,MR,hard,3,u8oFh0ZHHs,pool34
right,right,1,1.0073,MR,hard,4,u8oFh0ZHHs,pool34
left,right,0,0.9163,MR,hard,5,u8oFh0ZHHs,pool34
left,right,0,0.977,MR,hard,6,u8oFh0ZHHs,pool34
right,right,1,0.8015,MR,hard,7,u8oFh0ZHHs,pool34
left,right,0,0.745,MR,hard,8,u8oFh0ZHHs,pool34
left,right,0,0.6589,MR,hard,9,u8oFh0ZHHs,pool34
left,right,0,0.5631,MR,hard,10,u8oFh0ZHHs,pool34
right,right,1,0.6314,MR,hard,11,u8oFh0ZHHs,pool34
right,right,1,1.3078,MR,hard,12,u8oFh0ZHHs,pool34
left,right,0,1.9977,MR,hard,13,u8oFh0ZHHs,pool34
left,right,0,0.7005,MR,hard,14,u8oFh0ZHHs,pool34
right,right,1,0.6315,MR,hard,15,u8oFh0ZHHs,pool34
right,right,1,0.5189,MR,hard,16,u8oFh0ZHHs,pool34
left,right,0,10.9391,MR,easy,1,lO4tI9SjJX,pool34
left,left,1,23.7641,MR,easy,2,lO4tI9SjJX,pool34
left,left,1,16.4811,MR,easy,3,lO4tI9SjJX,pool34
right,right,1,9.6128,MR,easy,4,lO4tI9SjJX,pool34
right,right,1,8.9178,MR,easy,5,lO4tI9SjJX,pool34
right,right,1,6.272,MR,easy,6,lO4tI9SjJX,pool34
left,left,1,8.5807,MR,easy,7,lO4tI9SjJX,pool34
right,right,1,5.0149,MR,easy,8,lO4tI9SjJX,pool34
right,right,1,3.9284,MR,easy,9,lO4tI9SjJX,pool34
left,left,1,7.1281,MR,easy,10,lO4tI9SjJX,pool34
right,right,1,5.6097,MR,easy,11,lO4tI9SjJX,pool34
left,left,1,4.745,MR,easy,12,lO4tI9SjJX,pool34
left,left,1,7.8626,MR,easy,13,lO4tI9SjJX,pool34
left,left,1,8.0609,MR,easy,14,lO4tI9SjJX,pool34
left,left,1,7.4787,MR,easy,15,lO4tI9SjJX,pool34
right,right,1,6.9936,MR,easy,16,lO4tI9SjJX,pool34
right,right,1,6.7675,MR,medium,1,lO4tI9SjJX,pool34
left,right,0,10.9958,MR,medium,2,lO4tI9SjJX,pool34
left,left,1,16.7987,MR,medium,3,lO4tI9SjJX,pool34
right,right,1,11.0117,MR,medium,4,lO4tI9SjJX,pool34
left,right,0,15.6081,MR,medium,5,lO4tI9SjJX,pool34
left,right,0,16.3645,MR,medium,6,lO4tI9SjJX,pool34
right,left,0,20.2629,MR,medium,7,lO4tI9SjJX,pool34
left,right,0,22.2516,MR,medium,8,lO4tI9SjJX,pool34
right,right,1,8.7777,MR,medium,9,lO4tI9SjJX,pool34
right,right,1,14.0641,MR,medium,10,lO4tI9SjJX,pool34
right,right,1,11.5671,MR,medium,11,lO4tI9SjJX,pool34
right,right,1,13.9282,MR,medium,12,lO4tI9SjJX,pool34
left,right,0,20.9838,MR,medium,13,lO4tI9SjJX,pool34
left,left,1,16.3323,MR,medium,14,lO4tI9SjJX,pool34
right,right,1,9.6121,MR,medium,15,lO4tI9SjJX,pool34
right,right,1,9.7766,MR,medium,16,lO4tI9SjJX,pool34
right,right,1,10.2858,MR,hard,1,lO4tI9SjJX,pool34
left,right,0,7.0483,MR,hard,2,lO4tI9SjJX,pool34
right,right,1,13.9346,MR,hard,3,lO4tI9SjJX,pool34
left,right,0,11.0624,MR,hard,4,lO4tI9SjJX,pool34
right,right,1,9.079,MR,hard,5,lO4tI9SjJX,pool34
right,right,1,11.1605,MR,hard,6,lO4tI9SjJX,pool34
right,left,0,13.2694,MR,hard,7,lO4tI9SjJX,pool34
right,right,1,11.6107,MR,hard,8,lO4tI9SjJX,pool34
right,left,0,30.0047,MR,hard,9,lO4tI9SjJX,pool34
right,right,1,16.231,MR,hard,10,lO4tI9SjJX,pool34
right,right,1,11.9638,MR,hard,11,lO4tI9SjJX,pool34
left,right,0,30.9875,MR,hard,12,lO4tI9SjJX,pool34
left,left,1,24.167,MR,hard,13,lO4tI9SjJX,pool34
right,right,1,31.87,MR,hard,14,lO4tI9SjJX,pool34
right,left,0,14.4329,MR,hard,15,lO4tI9SjJX,pool34
right,right,1,10.6431,MR,hard,16,lO4tI9SjJX,pool34
right,right,1,3.703,MR,easy,1,5oMH7YJKDi,pool34
right,right,1,2.446,MR,easy,2,5oMH7YJKDi,pool34
right,right,1,2.017,MR,easy,3,5oMH7YJKDi,pool34
right,right,1,6.545,MR,easy,4,5oMH7YJKDi,pool34
right,right,1,2.52,MR,easy,5,5oMH7YJKDi,pool34
left,left,1,2.952,MR,easy,6,5oMH7YJKDi,pool34
right,right,1,4.205,MR,easy,7,5oMH7YJKDi,pool34
right,right,1,3.553,MR,easy,8,5oMH7YJKDi,pool34
left,left,1,2.784,MR,easy,9,5oMH7YJKDi,pool34
right,right,1,1.588,MR,easy,10,5oMH7YJKDi,pool34
right,right,1,1.551,MR,easy,11,5oMH7YJKDi,pool34
right,right,1,2.033,MR,easy,12,5oMH7YJKDi,pool34
left,left,1,4.362,MR,easy,13,5oMH7YJKDi,pool34
right,right,1,2.281,MR,easy,14,5oMH7YJKDi,pool34
right,right,1,2.517,MR,easy,15,5oMH7YJKDi,pool34
right,right,1,1.737,MR,easy,16,5oMH7YJKDi,pool34
right,right,1,11.292,MR,medium,1,5oMH7YJKDi,pool34
right,right,1,4.503,MR,medium,2,5oMH7YJKDi,pool34
left,left,1,7.967,MR,medium,3,5oMH7YJKDi,pool34
left,left,1,6.632,MR,medium,4,5oMH7YJKDi,pool34
left,left,1,7.168,MR,medium,5,5oMH7YJKDi,pool34
right,right,1,9.201,MR,medium,6,5oMH7YJKDi,pool34
right,right,1,8.75,MR,medium,7,5oMH7YJKDi,pool34
left,left,1,7.662,MR,medium,8,5oMH7YJKDi,pool34
right,right,1,3.782,MR,medium,9,5oMH7YJKDi,pool34
left,left,1,3.895,MR,medium,10,5oMH7YJKDi,pool34
left,left,1,4.899,MR,medium,11,5oMH7YJKDi,pool34
right,right,1,3.336,MR,medium,12,5oMH7YJKDi,pool34
right,left,0,3.681,MR,medium,13,5oMH7YJKDi,pool34
right,right,1,3.127,MR,medium,14,5oMH7YJKDi,pool34
left,left,1,5.247,MR,medium,15,5oMH7YJKDi,pool34
right,right,1,3.656,MR,medium,16,5oMH7YJKDi,pool34
left,left,1,6.922,MR,hard,1,5oMH7YJKDi,pool34
right,right,1,5.984,MR,hard,2,5oMH7YJKDi,pool34
left,left,1,30.12,MR,hard,3,5oMH7YJKDi,pool34
left,left,1,20.24,MR,hard,4,5oMH7YJKDi,pool34
right,right,1,5.667,MR,hard,5,5oMH7YJKDi,pool34
left,right,0,5.536,MR,hard,6,5oMH7YJKDi,pool34
right,right,1,3.858,MR,hard,7,5oMH7YJKDi,pool34
left,left,1,10.5,MR,hard,8,5oMH7YJKDi,pool34
left,left,1,14.178,MR,hard,9,5oMH7YJKDi,pool34
right,right,1,7.977,MR,hard,10,5oMH7YJKDi,pool34
right,right,1,7.684,MR,hard,11,5oMH7YJKDi,pool34
right,right,1,16.645,MR,hard,12,5oMH7YJKDi,pool34
right,right,1,4.715,MR,hard,13,5oMH7YJKDi,pool34
right,right,1,7.48,MR,hard,14,5oMH7YJKDi,pool34
left,left,1,9.649,MR,hard,15,5oMH7YJKDi,pool34
left,left,1,14.531,MR,hard,16,5oMH7YJKDi,pool34
right,right,1,2.7657,MR,easy,1,wBsXFrRWgF,pool34
right,right,1,4.9341,MR,easy,2,wBsXFrRWgF,pool34
right,right,1,5.7469,MR,easy,3,wBsXFrRWgF,pool34
right,right,1,5.8231,MR,easy,4,wBsXFrRWgF,pool34
left,left,1,4.4444,MR,easy,5,wBsXFrRWgF,pool34
left,left,1,5.2173,MR,easy,6,wBsXFrRWgF,pool34
right,right,1,3.7159,MR,easy,7,wBsXFrRWgF,pool34
right,right,1,5.1586,MR,easy,8,wBsXFrRWgF,pool34
left,left,1,3.3428,MR,easy,9,wBsXFrRWgF,pool34
left,right,0,4.2872,MR,easy,10,wBsXFrRWgF,pool34
right,right,1,3.215,MR,easy,11,wBsXFrRWgF,pool34
left,left,1,4.3565,MR,easy,12,wBsXFrRWgF,pool34
right,right,1,2.7174,MR,easy,13,wBsXFrRWgF,pool34
left,left,1,1.4973,MR,easy,14,wBsXFrRWgF,pool34
left,left,1,1.6504,MR,easy,15,wBsXFrRWgF,pool34
right,right,1,1.891,MR,easy,16,wBsXFrRWgF,pool34
right,left,0,3.6748,MR,medium,1,wBsXFrRWgF,pool34
left,right,0,5.7255,MR,medium,2,wBsXFrRWgF,pool34
left,right,0,4.1982,MR,medium,3,wBsXFrRWgF,pool34
left,right,0,2.5559,MR,medium,4,wBsXFrRWgF,pool34
right,left,0,2.3849,MR,medium,5,wBsXFrRWgF,pool34
left,right,0,2.6269,MR,medium,6,wBsXFrRWgF,pool34
left,right,0,3.0341,MR,medium,7,wBsXFrRWgF,pool34
right,right,1,2.0776,MR,medium,8,wBsXFrRWgF,pool34
left,left,1,3.7093,MR,medium,9,wBsXFrRWgF,pool34
right,right,1,3.1957,MR,medium,10,wBsXFrRWgF,pool34
left,right,0,2.4101,MR,medium,11,wBsXFrRWgF,pool34
right,right,1,1.9326,MR,medium,12,wBsXFrRWgF,pool34
right,right,1,1.7868,MR,medium,13,wBsXFrRWgF,pool34
right,left,0,2.0356,MR,medium,14,wBsXFrRWgF,pool34
left,right,0,1.5378,MR,medium,15,wBsXFrRWgF,pool34
left,right,0,3.8372,MR,medium,16,wBsXFrRWgF,pool34
right,right,1,6.1497,MR,hard,1,wBsXFrRWgF,pool34
left,right,0,3.1328,MR,hard,2,wBsXFrRWgF,pool34
right,left,0,2.1434,MR,hard,3,wBsXFrRWgF,pool34
left,left,1,5.0628,MR,hard,4,wBsXFrRWgF,pool34
right,right,1,2.5935,MR,hard,5,wBsXFrRWgF,pool34
right,right,1,1.7687,MR,hard,6,wBsXFrRWgF,pool34
left,left,1,2.6,MR,hard,7,wBsXFrRWgF,pool34
left,right,0,2.3438,MR,hard,8,wBsXFrRWgF,pool34
right,right,1,1.8342,MR,hard,9,wBsXFrRWgF,pool34
right,left,0,2.9123,MR,hard,10,wBsXFrRWgF,pool34
right,left,0,2.2596,MR,hard,11,wBsXFrRWgF,pool34
right,left,0,1.5092,MR,hard,12,wBsXFrRWgF,pool34
right,right,1,1.7093,MR,hard,13,wBsXFrRWgF,pool34
left,right,0,2.0762,MR,hard,14,wBsXFrRWgF,pool34
left,right,0,1.6948,MR,hard,15,wBsXFrRWgF,pool34
left,right,0,2.9534,MR,hard,16,wBsXFrRWgF,pool34
right,left,0,3.2063,MR,easy,1,PkgTbVVI07,pool34
right,left,0,2.1834,MR,easy,2,PkgTbVVI07,pool34
left,right,0,1.167,MR,easy,3,PkgTbVVI07,pool34
right,left,0,1.9038,MR,easy,4,PkgTbVVI07,pool34
right,left,0,1.642,MR,easy,5,PkgTbVVI07,pool34
left,left,1,2.3167,MR,easy,6,PkgTbVVI07,pool34
right,right,1,2.7845,MR,easy,7,PkgTbVVI07,pool34
left,left,1,3.3974,MR,easy,8,PkgTbVVI07,pool34
right,left,0,3.8174,MR,easy,9,PkgTbVVI07,pool34
left,left,1,3.8859,MR,easy,10,PkgTbVVI07,pool34
right,right,1,1.6323,MR,easy,11,PkgTbVVI07,pool34
right,right,1,3.7049,MR,easy,12,PkgTbVVI07,pool34
right,right,1,4.7818,MR,easy,13,PkgTbVVI07,pool34
right,right,1,2.589,MR,easy,14,PkgTbVVI07,pool34
right,right,1,1.8689,MR,easy,15,PkgTbVVI07,pool34
left,right,0,2.2469,MR,easy,16,PkgTbVVI07,pool34
left,left,1,1.4621,MR,medium,1,PkgTbVVI07,pool34
left,left,1,3.4475,MR,medium,2,PkgTbVVI07,pool34
right,right,1,3.2958,MR,medium,3,PkgTbVVI07,pool34
left,left,1,5.3802,MR,medium,4,PkgTbVVI07,pool34
left,right,0,2.3304,MR,medium,5,PkgTbVVI07,pool34
left,right,0,2.2262,MR,medium,6,PkgTbVVI07,pool34
left,right,0,4.7994,MR,medium,7,PkgTbVVI07,pool34
left,left,1,1.4649,MR,medium,8,PkgTbVVI07,pool34
left,left,1,3.2188,MR,medium,9,PkgTbVVI07,pool34
right,right,1,1.9376,MR,medium,10,PkgTbVVI07,pool34
left,right,0,3.1473,MR,medium,11,PkgTbVVI07,pool34
left,left,1,2.5832,MR,medium,12,PkgTbVVI07,pool34
left,right,0,1.7089,MR,medium,13,PkgTbVVI07,pool34
right,left,0,3.9326,MR,medium,14,PkgTbVVI07,pool34
left,left,1,9.6918,MR,medium,15,PkgTbVVI07,pool34
left,left,1,1.5894,MR,medium,16,PkgTbVVI07,pool34
right,left,0,2.0427,MR,hard,1,PkgTbVVI07,pool34
right,left,0,2.1988,MR,hard,2,PkgTbVVI07,pool34
left,right,0,2.0167,MR,hard,3,PkgTbVVI07,pool34
left,left,1,1.508,MR,hard,4,PkgTbVVI07,pool34
left,left,1,1.4636,MR,hard,5,PkgTbVVI07,pool34
right,right,1,2.9617,MR,hard,6,PkgTbVVI07,pool34
right,left,0,1.6196,MR,hard,7,PkgTbVVI07,pool34
right,left,0,7.8538,MR,hard,8,PkgTbVVI07,pool34
right,right,1,2.9521,MR,hard,9,PkgTbVVI07,pool34
right,left,0,1.8144,MR,hard,10,PkgTbVVI07,pool34
right,right,1,1.8178,MR,hard,11,PkgTbVVI07,pool34
right,right,1,2.7288,MR,hard,12,PkgTbVVI07,pool34
left,left,1,2.1309,MR,hard,13,PkgTbVVI07,pool34
right,left,0,2.3357,MR,hard,14,PkgTbVVI07,pool34
right,left,0,2.93,MR,hard,15,PkgTbVVI07,pool34
right,right,1,1.0949,MR,hard,16,PkgTbVVI07,pool34
right,right,1,12.188,MR,easy,1,0wY7q7AFDw,pool34
right,right,1,4.822,MR,easy,2,0wY7q7AFDw,pool34
right,right,1,3.5235,MR,easy,3,0wY7q7AFDw,pool34
right,right,1,6.3917,MR,easy,4,0wY7q7AFDw,pool34
right,right,1,4.0597,MR,easy,5,0wY7q7AFDw,pool34
right,right,1,2.337,MR,easy,6,0wY7q7AFDw,pool34
left,left,1,6.2012,MR,easy,7,0wY7q7AFDw,pool34
right,right,1,3.4727,MR,easy,8,0wY7q7AFDw,pool34
right,right,1,2.1012,MR,easy,9,0wY7q7AFDw,pool34
right,right,1,2.684,MR,easy,10,0wY7q7AFDw,pool34
left,left,1,3.4753,MR,easy,11,0wY7q7AFDw,pool34
right,right,1,6.5799,MR,easy,12,0wY7q7AFDw,pool34
right,right,1,2.0885,MR,easy,13,0wY7q7AFDw,pool34
left,right,0,9.0194,MR,easy,14,0wY7q7AFDw,pool34
left,right,0,4.8477,MR,easy,15,0wY7q7AFDw,pool34
right,right,1,3.9804,MR,easy,16,0wY7q7AFDw,pool34
left,left,1,6.7152,MR,medium,1,0wY7q7AFDw,pool34
left,left,1,6.2152,MR,medium,2,0wY7q7AFDw,pool34
right,right,1,9.0547,MR,medium,3,0wY7q7AFDw,pool34
right,right,1,10.3259,MR,medium,4,0wY7q7AFDw,pool34
left,right,0,19.9322,MR,medium,5,0wY7q7AFDw,pool34
right,right,1,6.0294,MR,medium,6,0wY7q7AFDw,pool34
left,left,1,5.5891,MR,medium,7,0wY7q7AFDw,pool34
right,left,0,21.556,MR,medium,8,0wY7q7AFDw,pool34
left,left,1,6.2116,MR,medium,9,0wY7q7AFDw,pool34
right,left,0,3.0017,MR,medium,10,0wY7q7AFDw,pool34
right,right,1,7.0133,MR,medium,11,0wY7q7AFDw,pool34
left,left,1,6.7094,MR,medium,12,0wY7q7AFDw,pool34
left,right,0,5.1416,MR,medium,13,0wY7q7AFDw,pool34
right,right,1,5.8471,MR,medium,14,0wY7q7AFDw,pool34
left,left,1,9.8913,MR,medium,15,0wY7q7AFDw,pool34
left,left,1,4.2921,MR,medium,16,0wY7q7AFDw,pool34
right,left,0,5.5346,MR,hard,1,0wY7q7AFDw,pool34
right,right,1,8.7347,MR,hard,2,0wY7q7AFDw,pool34
right,right,1,15.9168,MR,hard,3,0wY7q7AFDw,pool34
right,left,0,3.1353,MR,hard,4,0wY7q7AFDw,pool34
left,left,1,8.9127,MR,hard,5,0wY7q7AFDw,pool34
right,right,1,9.8746,MR,hard,6,0wY7q7AFDw,pool34
left,left,1,9.4836,MR,hard,7,0wY7q7AFDw,pool34
left,left,1,4.7576,MR,hard,8,0wY7q7AFDw,pool34
left,left,1,8.869,MR,hard,9,0wY7q7AFDw,pool34
left,left,1,9.6924,MR,hard,10,0wY7q7AFDw,pool34
right,right,1,15.7211,MR,hard,11,0wY7q7AFDw,pool34
right,right,1,8.6386,MR,hard,12,0wY7q7AFDw,pool34
right,right,1,3.1496,MR,hard,13,0wY7q7AFDw,pool34
right,right,1,13.7513,MR,hard,14,0wY7q7AFDw,pool34
right,right,1,4.18,MR,hard,15,0wY7q7AFDw,pool34
right,left,0,9.0091,MR,hard,16,0wY7q7AFDw,pool34
left,right,0,3.1277,MR,easy,1,woSzLv5BIV,pool34
left,right,0,1.8649,MR,easy,2,woSzLv5BIV,pool34
right,right,1,1.3678,MR,easy,3,woSzLv5BIV,pool34
right,right,1,1.3508,MR,easy,4,woSzLv5BIV,pool34
left,right,0,1.0841,MR,easy,5,woSzLv5BIV,pool34
left,left,1,4.9574,MR,easy,6,woSzLv5BIV,pool34
right,left,0,4.1949,MR,easy,7,woSzLv5BIV,pool34
right,left,0,2.2799,MR,easy,8,woSzLv5BIV,pool34
left,right,0,2.5471,MR,easy,9,woSzLv5BIV,pool34
left,right,0,1.0521,MR,easy,10,woSzLv5BIV,pool34
left,right,0,1.5674,MR,easy,11,woSzLv5BIV,pool34
left,right,0,4.207,MR,easy,12,woSzLv5BIV,pool34
left,right,0,2.2284,MR,easy,13,woSzLv5BIV,pool34
left,left,1,3.0452,MR,easy,14,woSzLv5BIV,pool34
left,right,0,1.0696,MR,easy,15,woSzLv5BIV,pool34
left,right,0,3.9174,MR,easy,16,woSzLv5BIV,pool34
right,right,1,3.7638,MR,medium,1,woSzLv5BIV,pool34
left,right,0,1.0669,MR,medium,2,woSzLv5BIV,pool34
right,right,1,0.8674,MR,medium,3,woSzLv5BIV,pool34
left,right,0,0.9345,MR,medium,4,woSzLv5BIV,pool34
left,right,0,0.9678,MR,medium,5,woSzLv5BIV,pool34
left,right,0,1.1344,MR,medium,6,woSzLv5BIV,pool34
right,right,1,1.9683,MR,medium,7,woSzLv5BIV,pool34
right,right,1,0.8341,MR,medium,8,woSzLv5BIV,pool34
right,right,1,0.9845,MR,medium,9,woSzLv5BIV,pool34
left,right,0,0.9844,MR,medium,10,woSzLv5BIV,pool34
right,right,1,1.268,MR,medium,11,woSzLv5BIV,pool34
right,left,0,1.4677,MR,medium,12,woSzLv5BIV,pool34
right,right,1,0.8845,MR,medium,13,woSzLv5BIV,pool34
right,right,1,3.3512,MR,medium,14,woSzLv5BIV,pool34
left,left,1,2.151,MR,medium,15,woSzLv5BIV,pool34
right,right,1,0.9008,MR,medium,16,woSzLv5BIV,pool34
right,right,1,2.4611,MR,hard,1,woSzLv5BIV,pool34
left,left,1,3.5789,MR,hard,2,woSzLv5BIV,pool34
left,right,0,1.0945,MR,hard,3,woSzLv5BIV,pool34
right,right,1,1.1357,MR,hard,4,woSzLv5BIV,pool34
right,right,1,1.4516,MR,hard,5,woSzLv5BIV,pool34
right,left,0,1.5343,MR,hard,6,woSzLv5BIV,pool34
left,right,0,0.6842,MR,hard,7,woSzLv5BIV,pool34
right,right,1,0.8558,MR,hard,8,woSzLv5BIV,pool34
left,right,0,0.874,MR,hard,9,woSzLv5BIV,pool34
right,right,1,0.9507,MR,hard,10,woSzLv5BIV,pool34
left,right,0,1.4505,MR,hard,11,woSzLv5BIV,pool34
left,right,0,1.0377,MR,hard,12,woSzLv5BIV,pool34
left,right,0,0.8327,MR,hard,13,woSzLv5BIV,pool34
left,right,0,1.1009,MR,hard,14,woSzLv5BIV,pool34
left,right,0,0.9177,MR,hard,15,woSzLv5BIV,pool34
left,right,0,0.8356,MR,hard,16,woSzLv5BIV,pool34
left,right,0,6.6797,MR,easy,1,O0ngZJhb9l,pool34
right,right,1,1.873,MR,easy,2,O0ngZJhb9l,pool34
left,left,1,5.9191,MR,easy,3,O0ngZJhb9l,pool34
left,right,0,3.6054,MR,easy,4,O0ngZJhb9l,pool34
right,right,1,6.9065,MR,easy,5,O0ngZJhb9l,pool34
left,left,1,9.3181,MR,easy,6,O0ngZJhb9l,pool34
right,right,1,4.7675,MR,easy,7,O0ngZJhb9l,pool34
left,right,0,9.592,MR,easy,8,O0ngZJhb9l,pool34
right,right,1,11.6083,MR,easy,9,O0ngZJhb9l,pool34
right,right,1,9.1003,MR,easy,10,O0ngZJhb9l,pool34
left,right,0,2.6644,MR,easy,11,O0ngZJhb9l,pool34
left,right,0,7.5582,MR,easy,12,O0ngZJhb9l,pool34
right,left,0,2.6528,MR,easy,13,O0ngZJhb9l,pool34
right,right,1,6.3899,MR,easy,14,O0ngZJhb9l,pool34
right,right,1,3.839,MR,easy,15,O0ngZJhb9l,pool34
left,right,0,5.0704,MR,easy,16,O0ngZJhb9l,pool34
left,right,0,4.3834,MR,medium,1,O0ngZJhb9l,pool34
right,right,1,1.2729,MR,medium,2,O0ngZJhb9l,pool34
left,right,0,1.7807,MR,medium,3,O0ngZJhb9l,pool34
right,right,1,1.8278,MR,medium,4,O0ngZJhb9l,pool34
left,right,0,1.553,MR,medium,5,O0ngZJhb9l,pool34
left,left,1,3.4859,MR,medium,6,O0ngZJhb9l,pool34
left,right,0,0.9843,MR,medium,7,O0ngZJhb9l,pool34
left,right,0,0.5862,MR,medium,8,O0ngZJhb9l,pool34
right,right,1,3.4728,MR,medium,9,O0ngZJhb9l,pool34
left,left,1,1.515,MR,medium,10,O0ngZJhb9l,pool34
right,right,1,4.8641,MR,medium,11,O0ngZJhb9l,pool34
left,left,1,1.8515,MR,medium,12,O0ngZJhb9l,pool34
left,left,1,6.9301,MR,medium,13,O0ngZJhb9l,pool34
left,left,1,1.7161,MR,medium,14,O0ngZJhb9l,pool34
right,right,1,1.1345,MR,medium,15,O0ngZJhb9l,pool34
right,right,1,0.8679,MR,medium,16,O0ngZJhb9l,pool34
left,left,1,4.8882,MR,hard,1,O0ngZJhb9l,pool34
right,right,1,2.9235,MR,hard,2,O0ngZJhb9l,pool34
left,left,1,9.9223,MR,hard,3,O0ngZJhb9l,pool34
right,left,0,4.4289,MR,hard,4,O0ngZJhb9l,pool34
left,right,0,1.4591,MR,hard,5,O0ngZJhb9l,pool34
left,left,1,7.0837,MR,hard,6,O0ngZJhb9l,pool34
left,right,0,3.2928,MR,hard,7,O0ngZJhb9l,pool34
right,right,1,3.8203,MR,hard,8,O0ngZJhb9l,pool34
right,right,1,6.0826,MR,hard,9,O0ngZJhb9l,pool34
right,left,0,3.4287,MR,hard,10,O0ngZJhb9l,pool34
left,left,1,5.2319,MR,hard,11,O0ngZJhb9l,pool34
right,right,1,11.2584,MR,hard,12,O0ngZJhb9l,pool34
right,left,0,1.5097,MR,hard,13,O0ngZJhb9l,pool34
left,left,1,1.9533,MR,hard,14,O0ngZJhb9l,pool34
left,right,0,2.2472,MR,hard,15,O0ngZJhb9l,pool34
right,left,0,4.1835,MR,hard,16,O0ngZJhb9l,pool34
right,right,1,7.4289,MR,easy,1,ttxEdLIMGM,pool34
left,left,1,12.1381,MR,easy,2,ttxEdLIMGM,pool34
left,left,1,42.948,MR,easy,3,ttxEdLIMGM,pool34
left,left,1,17.969,MR,easy,4,ttxEdLIMGM,pool34
right,left,0,9.3759,MR,easy,5,ttxEdLIMGM,pool34
left,right,0,25.2659,MR,easy,6,ttxEdLIMGM,pool34
right,right,1,51.1412,MR,easy,7,ttxEdLIMGM,pool34
right,right,1,7.2538,MR,easy,8,ttxEdLIMGM,pool34
right,right,1,5.0458,MR,easy,9,ttxEdLIMGM,pool34
right,right,1,8.6683,MR,easy,10,ttxEdLIMGM,pool34
right,right,1,4.5419,MR,easy,11,ttxEdLIMGM,pool34
left,left,1,4.1698,MR,easy,12,ttxEdLIMGM,pool34
right,right,1,11.5555,MR,easy,13,ttxEdLIMGM,pool34
right,right,1,3.5984,MR,easy,14,ttxEdLIMGM,pool34
right,right,1,4.6265,MR,easy,15,ttxEdLIMGM,pool34
left,left,1,43.2542,MR,easy,16,ttxEdLIMGM,pool34
left,left,1,13.469,MR,medium,1,ttxEdLIMGM,pool34
right,right,1,4.5624,MR,medium,2,ttxEdLIMGM,pool34
left,left,1,10.9619,MR,medium,3,ttxEdLIMGM,pool34
right,left,0,5.2267,MR,medium,4,ttxEdLIMGM,pool34
left,left,1,21.9557,MR,medium,5,ttxEdLIMGM,pool34
right,right,1,11.8437,MR,medium,6,ttxEdLIMGM,pool34
right,right,1,5.8105,MR,medium,7,ttxEdLIMGM,pool34
right,right,1,6.9935,MR,medium,8,ttxEdLIMGM,pool34
right,right,1,10.5079,MR,medium,9,ttxEdLIMGM,pool34
left,right,0,14.6355,MR,medium,10,ttxEdLIMGM,pool34
right,right,1,13.7026,MR,medium,11,ttxEdLIMGM,pool34
left,left,1,5.2259,MR,medium,12,ttxEdLIMGM,pool34
left,right,0,8.4693,MR,medium,13,ttxEdLIMGM,pool34
left,left,1,7.3778,MR,medium,14,ttxEdLIMGM,pool34
left,right,0,6.3655,MR,medium,15,ttxEdLIMGM,pool34
left,left,1,12.2293,MR,medium,16,ttxEdLIMGM,pool34
left,left,1,3.4275,MR,hard,1,ttxEdLIMGM,pool34
right,right,1,8.0684,MR,hard,2,ttxEdLIMGM,pool34
right,left,0,9.4024,MR,hard,3,ttxEdLIMGM,pool34
right,left,0,10.1936,MR,hard,4,ttxEdLIMGM,pool34
right,right,1,12.123,MR,hard,5,ttxEdLIMGM,pool34
right,left,0,13.8672,MR,hard,6,ttxEdLIMGM,pool34
right,left,0,6.675,MR,hard,7,ttxEdLIMGM,pool34
right,right,1,3.4275,MR,hard,8,ttxEdLIMGM,pool34
left,left,1,11.8117,MR,hard,9,ttxEdLIMGM,pool34
right,right,1,4.6608,MR,hard,10,ttxEdLIMGM,pool34
right,left,0,8.2768,MR,hard,11,ttxEdLIMGM,pool34
right,left,0,6.4532,MR,hard,12,ttxEdLIMGM,pool34
left,right,0,9.3179,MR,hard,13,ttxEdLIMGM,pool34
right,right,1,7.0242000000000004,MR,hard,14,ttxEdLIMGM,pool34
right,right,1,4.7298,MR,hard,15,ttxEdLIMGM,pool34
right,right,1,4.2263,MR,hard,16,ttxEdLIMGM,pool34
left,right,0,8.0965,MR,easy,1,pevbr5tS1I,pool34
right,right,1,5.3032,MR,easy,2,pevbr5tS1I,pool34
left,right,0,6.5211,MR,easy,3,pevbr5tS1I,pool34
left,right,0,4.7757,MR,easy,4,pevbr5tS1I,pool34
left,right,0,4.2394,MR,easy,5,pevbr5tS1I,pool34
right,right,1,3.0097,MR,easy,6,pevbr5tS1I,pool34
right,right,1,1.6417,MR,easy,7,pevbr5tS1I,pool34
left,left,1,6.6668,MR,easy,8,pevbr5tS1I,pool34
right,right,1,2.4753,MR,easy,9,pevbr5tS1I,pool34
left,left,1,4.1339,MR,easy,10,pevbr5tS1I,pool34
left,right,0,4.4905,MR,easy,11,pevbr5tS1I,pool34
right,right,1,5.3764,MR,easy,12,pevbr5tS1I,pool34
right,right,1,1.9711,MR,easy,13,pevbr5tS1I,pool34
right,right,1,2.0198,MR,easy,14,pevbr5tS1I,pool34
left,right,0,2.3241,MR,easy,15,pevbr5tS1I,pool34
left,right,0,2.4672,MR,easy,16,pevbr5tS1I,pool34
left,left,1,5.8386,MR,medium,1,pevbr5tS1I,pool34
right,left,0,2.6928,MR,medium,2,pevbr5tS1I,pool34
right,left,0,2.7235,MR,medium,3,pevbr5tS1I,pool34
right,right,1,2.4342,MR,medium,4,pevbr5tS1I,pool34
right,left,0,5.1729,MR,medium,5,pevbr5tS1I,pool34
left,left,1,3.8236,MR,medium,6,pevbr5tS1I,pool34
left,left,1,7.64,MR,medium,7,pevbr5tS1I,pool34
left,left,1,2.1298,MR,medium,8,pevbr5tS1I,pool34
left,left,1,2.4507,MR,medium,9,pevbr5tS1I,pool34
left,right,0,2.3839,MR,medium,10,pevbr5tS1I,pool34
left,left,1,2.5352,MR,medium,11,pevbr5tS1I,pool34
left,left,1,8.5591,MR,medium,12,pevbr5tS1I,pool34
right,left,0,5.2636,MR,medium,13,pevbr5tS1I,pool34
left,left,1,1.6627,MR,medium,14,pevbr5tS1I,pool34
right,left,0,3.9553,MR,medium,15,pevbr5tS1I,pool34
left,right,0,4.7231,MR,medium,16,pevbr5tS1I,pool34
right,left,0,5.9329,MR,hard,1,pevbr5tS1I,pool34
left,right,0,4.638,MR,hard,2,pevbr5tS1I,pool34
left,left,1,3.5077,MR,hard,3,pevbr5tS1I,pool34
right,left,0,3.9853,MR,hard,4,pevbr5tS1I,pool34
right,left,0,4.4809,MR,hard,5,pevbr5tS1I,pool34
right,left,0,1.8055,MR,hard,6,pevbr5tS1I,pool34
left,left,1,2.5671,MR,hard,7,pevbr5tS1I,pool34
right,right,1,1.4948,MR,hard,8,pevbr5tS1I,pool34
right,left,0,5.1685,MR,hard,9,pevbr5tS1I,pool34
right,left,0,1.7899,MR,hard,10,pevbr5tS1I,pool34
right,right,1,7.0209,MR,hard,11,pevbr5tS1I,pool34
left,left,1,6.3442,MR,hard,12,pevbr5tS1I,pool34
left,left,1,3.995,MR,hard,13,pevbr5tS1I,pool34
left,left,1,3.2237,MR,hard,14,pevbr5tS1I,pool34
left,left,1,4.8962,MR,hard,15,pevbr5tS1I,pool34
right,right,1,2.6467,MR,hard,16,pevbr5tS1I,pool34
left,left,1,4.1036,MR,easy,1,zMSGYZOzxF,pool34
left,right,0,5.2339,MR,easy,2,zMSGYZOzxF,pool34
left,right,0,4.4426,MR,easy,3,zMSGYZOzxF,pool34
right,right,1,4.2058,MR,easy,4,zMSGYZOzxF,pool34
right,right,1,4.7153,MR,easy,5,zMSGYZOzxF,pool34
left,right,0,3.171,MR,easy,6,zMSGYZOzxF,pool34
right,left,0,4.4064,MR,easy,7,zMSGYZOzxF,pool34
left,left,1,2.1739,MR,easy,8,zMSGYZOzxF,pool34
left,left,1,3.4817,MR,easy,9,zMSGYZOzxF,pool34
right,left,0,4.3749,MR,easy,10,zMSGYZOzxF,pool34
left,left,1,1.8066,MR,easy,11,zMSGYZOzxF,pool34
right,left,0,1.666,MR,easy,12,zMSGYZOzxF,pool34
left,left,1,2.6056,MR,easy,13,zMSGYZOzxF,pool34
left,right,0,2.7769,MR,easy,14,zMSGYZOzxF,pool34
right,right,1,3.274,MR,easy,15,zMSGYZOzxF,pool34
left,left,1,2.4136,MR,easy,16,zMSGYZOzxF,pool34
right,right,1,3.002,MR,medium,1,zMSGYZOzxF,pool34
right,left,0,5.5683,MR,medium,2,zMSGYZOzxF,pool34
right,right,1,3.3373,MR,medium,3,zMSGYZOzxF,pool34
left,right,0,8.3362,MR,medium,4,zMSGYZOzxF,pool34
left,left,1,8.8768,MR,medium,5,zMSGYZOzxF,pool34
right,right,1,3.1202,MR,medium,6,zMSGYZOzxF,pool34
left,right,0,6.7013,MR,medium,7,zMSGYZOzxF,pool34
right,right,1,2.8724,MR,medium,8,zMSGYZOzxF,pool34
right,right,1,3.1366,MR,medium,9,zMSGYZOzxF,pool34
left,left,1,7.61,MR,medium,10,zMSGYZOzxF,pool34
left,left,1,3.6719,MR,medium,11,zMSGYZOzxF,pool34
left,left,1,4.276,MR,medium,12,zMSGYZOzxF,pool34
left,right,0,6.2738,MR,medium,13,zMSGYZOzxF,pool34
right,left,0,5.4809,MR,medium,14,zMSGYZOzxF,pool34
left,right,0,3.2413,MR,medium,15,zMSGYZOzxF,pool34
left,left,1,6.0657,MR,medium,16,zMSGYZOzxF,pool34
left,right,0,10.0629,MR,hard,1,zMSGYZOzxF,pool34
left,right,0,3.433,MR,hard,2,zMSGYZOzxF,pool34
left,right,0,4.3109,MR,hard,3,zMSGYZOzxF,pool34
right,right,1,8.5076,MR,hard,4,zMSGYZOzxF,pool34
left,right,0,4.8079,MR,hard,5,zMSGYZOzxF,pool34
right,right,1,5.7904,MR,hard,6,zMSGYZOzxF,pool34
left,right,0,3.8498,MR,hard,7,zMSGYZOzxF,pool34
right,right,1,5.0181,MR,hard,8,zMSGYZOzxF,pool34
left,right,0,12.8418,MR,hard,9,zMSGYZOzxF,pool34
right,right,1,5.5375,MR,hard,10,zMSGYZOzxF,pool34
right,right,1,5.5079,MR,hard,11,zMSGYZOzxF,pool34
left,left,1,10.3412,MR,hard,12,zMSGYZOzxF,pool34
right,left,0,5.7693,MR,hard,13,zMSGYZOzxF,pool34
right,left,0,13.8162,MR,hard,14,zMSGYZOzxF,pool34
right,right,1,10.5143,MR,hard,15,zMSGYZOzxF,pool34
left,left,1,11.0143,MR,hard,16,zMSGYZOzxF,pool34
left,left,1,9.5824,MR,easy,1,FgaXoRhEpQ,pool34
right,right,1,7.1111,MR,easy,2,FgaXoRhEpQ,pool34
right,right,1,3.8693,MR,easy,3,FgaXoRhEpQ,pool34
right,right,1,5.4022,MR,easy,4,FgaXoRhEpQ,pool34
right,right,1,5.5522,MR,easy,5,FgaXoRhEpQ,pool34
right,right,1,3.973,MR,easy,6,FgaXoRhEpQ,pool34
right,right,1,9.134,MR,easy,7,FgaXoRhEpQ,pool34
right,right,1,7.0037,MR,easy,8,FgaXoRhEpQ,pool34
left,left,1,14.8101,MR,easy,9,FgaXoRhEpQ,pool34
right,right,1,3.8917,MR,easy,10,FgaXoRhEpQ,pool34
right,right,1,7.2084,MR,easy,11,FgaXoRhEpQ,pool34
left,left,1,4.9953,MR,easy,12,FgaXoRhEpQ,pool34
left,left,1,4.1875,MR,easy,13,FgaXoRhEpQ,pool34
left,left,1,7.5035,MR,easy,14,FgaXoRhEpQ,pool34
right,right,1,6.2201,MR,easy,15,FgaXoRhEpQ,pool34
right,right,1,3.9858,MR,easy,16,FgaXoRhEpQ,pool34
right,right,1,14.6435,MR,medium,1,FgaXoRhEpQ,pool34
right,right,1,9.6767,MR,medium,2,FgaXoRhEpQ,pool34
left,left,1,7.4855,MR,medium,3,FgaXoRhEpQ,pool34
left,left,1,4.8021,MR,medium,4,FgaXoRhEpQ,pool34
right,right,1,3.6529,MR,medium,5,FgaXoRhEpQ,pool34
left,left,1,4.7737,MR,medium,6,FgaXoRhEpQ,pool34
right,right,1,3.1521,MR,medium,7,FgaXoRhEpQ,pool34
right,right,1,6.8735,MR,medium,8,FgaXoRhEpQ,pool34
right,right,1,7.5102,MR,medium,9,FgaXoRhEpQ,pool34
left,left,1,8.2463,MR,medium,10,FgaXoRhEpQ,pool34
left,left,1,11.3384,MR,medium,11,FgaXoRhEpQ,pool34
right,right,1,15.706,MR,medium,12,FgaXoRhEpQ,pool34
right,right,1,5.3589,MR,medium,13,FgaXoRhEpQ,pool34
left,right,0,5.4922,MR,medium,14,FgaXoRhEpQ,pool34
right,right,1,10.5521,MR,medium,15,FgaXoRhEpQ,pool34
right,right,1,11.9521,MR,medium,16,FgaXoRhEpQ,pool34
right,right,1,16.6174,MR,hard,1,FgaXoRhEpQ,pool34
left,left,1,47.6255,MR,hard,2,FgaXoRhEpQ,pool34
left,left,1,20.2508,MR,hard,3,FgaXoRhEpQ,pool34
left,left,1,7.9841,MR,hard,4,FgaXoRhEpQ,pool34
left,left,1,45.7409,MR,hard,5,FgaXoRhEpQ,pool34
left,left,1,33.8417,MR,hard,6,FgaXoRhEpQ,pool34
right,right,1,10.1009,MR,hard,7,FgaXoRhEpQ,pool34
right,right,1,19.6037,MR,hard,8,FgaXoRhEpQ,pool34
left,right,0,37.9337,MR,hard,9,FgaXoRhEpQ,pool34
right,left,0,40.1014,MR,hard,10,FgaXoRhEpQ,pool34
right,left,0,11.1198,MR,hard,11,FgaXoRhEpQ,pool34
right,right,1,17.7049,MR,hard,12,FgaXoRhEpQ,pool34
right,right,1,18.6617,MR,hard,13,FgaXoRhEpQ,pool34
left,left,1,21.5836,MR,hard,14,FgaXoRhEpQ,pool34
left,left,1,18.3842,MR,hard,15,FgaXoRhEpQ,pool34
left,left,1,30.3592,MR,hard,16,FgaXoRhEpQ,pool34
left,right,0,2.2395,MR,easy,1,V4epNAqh9h,pool34
left,right,0,1.1523,MR,easy,2,V4epNAqh9h,pool34
right,right,1,1.0861,MR,easy,3,V4epNAqh9h,pool34
left,right,0,1.4259,MR,easy,4,V4epNAqh9h,pool34
left,right,0,1.1548,MR,easy,5,V4epNAqh9h,pool34
left,right,0,1.308,MR,easy,6,V4epNAqh9h,pool34
left,right,0,2.1187,MR,easy,7,V4epNAqh9h,pool34
left,left,1,1.434,MR,easy,8,V4epNAqh9h,pool34
left,right,0,2.8097,MR,easy,9,V4epNAqh9h,pool34
right,right,1,1.3264,MR,easy,10,V4epNAqh9h,pool34
right,left,0,2.0995,MR,easy,11,V4epNAqh9h,pool34
left,left,1,1.786,MR,easy,12,V4epNAqh9h,pool34
right,right,1,1.6374,MR,easy,13,V4epNAqh9h,pool34
left,right,0,1.9871,MR,easy,14,V4epNAqh9h,pool34
left,right,0,1.3614,MR,easy,15,V4epNAqh9h,pool34
left,right,0,1.1352,MR,easy,16,V4epNAqh9h,pool34
left,left,1,4.8017,MR,medium,1,V4epNAqh9h,pool34
left,right,0,1.1205,MR,medium,2,V4epNAqh9h,pool34
right,right,1,3.1226,MR,medium,3,V4epNAqh9h,pool34
right,right,1,2.0622,MR,medium,4,V4epNAqh9h,pool34
right,left,0,1.2755,MR,medium,5,V4epNAqh9h,pool34
right,right,1,1.8358,MR,medium,6,V4epNAqh9h,pool34
right,left,0,2.309,MR,medium,7,V4epNAqh9h,pool34
left,right,0,2.2418,MR,medium,8,V4epNAqh9h,pool34
left,right,0,2.1242,MR,medium,9,V4epNAqh9h,pool34
left,left,1,1.7876,MR,medium,10,V4epNAqh9h,pool34
right,left,0,1.3361,MR,medium,11,V4epNAqh9h,pool34
left,right,0,2.5519,MR,medium,12,V4epNAqh9h,pool34
right,right,1,1.5514,MR,medium,13,V4epNAqh9h,pool34
right,left,0,1.9861,MR,medium,14,V4epNAqh9h,pool34
right,left,0,2.551,MR,medium,15,V4epNAqh9h,pool34
right,left,0,1.4928,MR,medium,16,V4epNAqh9h,pool34
left,left,1,2.7161,MR,hard,1,V4epNAqh9h,pool34
left,right,0,2.2208,MR,hard,2,V4epNAqh9h,pool34
right,right,1,2.4452,MR,hard,3,V4epNAqh9h,pool34
right,right,1,4.0404,MR,hard,4,V4epNAqh9h,pool34
left,right,0,1.4626,MR,hard,5,V4epNAqh9h,pool34
right,right,1,2.2667,MR,hard,6,V4epNAqh9h,pool34
left,left,1,2.7245,MR,hard,7,V4epNAqh9h,pool34
left,left,1,2.6337,MR,hard,8,V4epNAqh9h,pool34
right,right,1,4.3584,MR,hard,9,V4epNAqh9h,pool34
left,right,0,3.007,MR,hard,10,V4epNAqh9h,pool34
left,right,0,1.9265,MR,hard,11,V4epNAqh9h,pool34
right,right,1,3.0542,MR,hard,12,V4epNAqh9h,pool34
left,right,0,2.1173,MR,hard,13,V4epNAqh9h,pool34
left,left,1,2.9717,MR,hard,14,V4epNAqh9h,pool34
right,right,1,2.8513,MR,hard,15,V4epNAqh9h,pool34
left,left,1,1.989,MR,hard,16,V4epNAqh9h,pool34
right,right,1,2.2369,MR,easy,1,7s1EYKyluI,pool34
left,right,0,2.8348,MR,easy,2,7s1EYKyluI,pool34
right,right,1,1.4559,MR,easy,3,7s1EYKyluI,pool34
left,left,1,3.251,MR,easy,4,7s1EYKyluI,pool34
right,right,1,1.7013,MR,easy,5,7s1EYKyluI,pool34
left,right,0,1.5188,MR,easy,6,7s1EYKyluI,pool34
right,right,1,2.4177,MR,easy,7,7s1EYKyluI,pool34
left,right,0,1.2674,MR,easy,8,7s1EYKyluI,pool34
left,right,0,1.234,MR,easy,9,7s1EYKyluI,pool34
left,left,1,1.3408,MR,easy,10,7s1EYKyluI,pool34
right,right,1,1.8512,MR,easy,11,7s1EYKyluI,pool34
left,right,0,1.5344,MR,easy,12,7s1EYKyluI,pool34
left,left,1,1.439,MR,easy,13,7s1EYKyluI,pool34
left,right,0,1.0527,MR,easy,14,7s1EYKyluI,pool34
left,right,0,1.5177,MR,easy,15,7s1EYKyluI,pool34
right,left,0,1.403,MR,easy,16,7s1EYKyluI,pool34
right,right,1,4.0365,MR,medium,1,7s1EYKyluI,pool34
left,left,1,1.2843,MR,medium,2,7s1EYKyluI,pool34
right,left,0,1.337,MR,medium,3,7s1EYKyluI,pool34
right,left,0,1.9506,MR,medium,4,7s1EYKyluI,pool34
left,left,1,1.1175,MR,medium,5,7s1EYKyluI,pool34
right,right,1,1.2187,MR,medium,6,7s1EYKyluI,pool34
right,right,1,1.701,MR,medium,7,7s1EYKyluI,pool34
right,left,0,1.8675,MR,medium,8,7s1EYKyluI,pool34
left,right,0,1.2676,MR,medium,9,7s1EYKyluI,pool34
left,right,0,1.8177,MR,medium,10,7s1EYKyluI,pool34
left,right,0,1.1341,MR,medium,11,7s1EYKyluI,pool34
left,left,1,1.1507,MR,medium,12,7s1EYKyluI,pool34
left,right,0,1.2342,MR,medium,13,7s1EYKyluI,pool34
right,right,1,1.1908,MR,medium,14,7s1EYKyluI,pool34
right,right,1,1.3176,MR,medium,15,7s1EYKyluI,pool34
left,left,1,1.1415,MR,medium,16,7s1EYKyluI,pool34
right,left,0,3.2338,MR,hard,1,7s1EYKyluI,pool34
left,left,1,1.2881,MR,hard,2,7s1EYKyluI,pool34
left,left,1,1.2068,MR,hard,3,7s1EYKyluI,pool34
right,right,1,1.0412,MR,hard,4,7s1EYKyluI,pool34
right,left,0,2.4716,MR,hard,5,7s1EYKyluI,pool34
left,right,0,1.5705,MR,hard,6,7s1EYKyluI,pool34
left,left,1,2.2844,MR,hard,7,7s1EYKyluI,pool34
right,right,1,1.1009,MR,hard,8,7s1EYKyluI,pool34
left,left,1,1.0512,MR,hard,9,7s1EYKyluI,pool34
right,left,0,2.4843,MR,hard,10,7s1EYKyluI,pool34
right,right,1,1.7061,MR,hard,11,7s1EYKyluI,pool34
right,left,0,1.6417,MR,hard,12,7s1EYKyluI,pool34
right,right,1,2.7348,MR,hard,13,7s1EYKyluI,pool34
left,right,0,7.3848,MR,hard,14,7s1EYKyluI,pool34
left,left,1,1.6512,MR,hard,15,7s1EYKyluI,pool34
left,left,1,2.4178,MR,hard,16,7s1EYKyluI,pool34
left,right,0,3.1405,MR,easy,1,GxpGXkXK8v,pool34
right,right,1,2.6941,MR,easy,2,GxpGXkXK8v,pool34
right,right,1,0.854,MR,easy,3,GxpGXkXK8v,pool34
left,right,0,0.9343,MR,easy,4,GxpGXkXK8v,pool34
right,right,1,1.031,MR,easy,5,GxpGXkXK8v,pool34
left,left,1,2.6585,MR,easy,6,GxpGXkXK8v,pool34
left,right,0,1.6048,MR,easy,7,GxpGXkXK8v,pool34
left,right,0,2.7192,MR,easy,8,GxpGXkXK8v,pool34
right,right,1,3.5041,MR,easy,9,GxpGXkXK8v,pool34
right,right,1,2.0253,MR,easy,10,GxpGXkXK8v,pool34
left,right,0,1.1251,MR,easy,11,GxpGXkXK8v,pool34
right,right,1,0.8116,MR,easy,12,GxpGXkXK8v,pool34
left,right,0,2.3539,MR,easy,13,GxpGXkXK8v,pool34
left,left,1,1.8338,MR,easy,14,GxpGXkXK8v,pool34
right,right,1,2.0752,MR,easy,15,GxpGXkXK8v,pool34
right,right,1,0.9221,MR,easy,16,GxpGXkXK8v,pool34
left,right,0,1.851,MR,medium,1,GxpGXkXK8v,pool34
left,right,0,0.7608,MR,medium,2,GxpGXkXK8v,pool34
left,right,0,0.8677,MR,medium,3,GxpGXkXK8v,pool34
left,right,0,0.7175,MR,medium,4,GxpGXkXK8v,pool34
left,right,0,0.5542,MR,medium,5,GxpGXkXK8v,pool34
left,right,0,0.7749,MR,medium,6,GxpGXkXK8v,pool34
left,right,0,1.1254,MR,medium,7,GxpGXkXK8v,pool34
left,right,0,0.5692,MR,medium,8,GxpGXkXK8v,pool34
left,right,0,0.5755,MR,medium,9,GxpGXkXK8v,pool34
left,right,0,0.943,MR,medium,10,GxpGXkXK8v,pool34
right,right,1,0.7284,MR,medium,11,GxpGXkXK8v,pool34
right,right,1,1.0336,MR,medium,12,GxpGXkXK8v,pool34
left,right,0,0.5259,MR,medium,13,GxpGXkXK8v,pool34
right,right,1,0.6529,MR,medium,14,GxpGXkXK8v,pool34
left,right,0,1.525,MR,medium,15,GxpGXkXK8v,pool34
left,right,0,1.3447,MR,medium,16,GxpGXkXK8v,pool34
left,right,0,4.3006,MR,hard,1,GxpGXkXK8v,pool34
right,right,1,2.0496,MR,hard,2,GxpGXkXK8v,pool34
right,right,1,3.2427,MR,hard,3,GxpGXkXK8v,pool34
right,right,1,1.1916,MR,hard,4,GxpGXkXK8v,pool34
left,right,0,1.7714,MR,hard,5,GxpGXkXK8v,pool34
right,left,0,1.0182,MR,hard,6,GxpGXkXK8v,pool34
left,right,0,2.5335,MR,hard,7,GxpGXkXK8v,pool34
left,right,0,1.0875,MR,hard,8,GxpGXkXK8v,pool34
left,right,0,1.1892,MR,hard,9,GxpGXkXK8v,pool34
right,left,0,1.1246,MR,hard,10,GxpGXkXK8v,pool34
left,right,0,1.7012,MR,hard,11,GxpGXkXK8v,pool34
left,right,0,1.2913,MR,hard,12,GxpGXkXK8v,pool34
left,right,0,2.2675,MR,hard,13,GxpGXkXK8v,pool34
right,right,1,2.2504,MR,hard,14,GxpGXkXK8v,pool34
left,right,0,1.9251,MR,hard,15,GxpGXkXK8v,pool34
right,right,1,1.9421,MR,hard,16,GxpGXkXK8v,pool34
left,left,1,5.2562,MR,easy,1,W98TU3XJxb,pool34
right,right,1,8.3945,MR,easy,2,W98TU3XJxb,pool34
right,right,1,4.7222,MR,easy,3,W98TU3XJxb,pool34
right,right,1,5.7838,MR,easy,4,W98TU3XJxb,pool34
right,right,1,5.2493,MR,easy,5,W98TU3XJxb,pool34
right,left,0,3.3317,MR,easy,6,W98TU3XJxb,pool34
left,left,1,6.6286,MR,easy,7,W98TU3XJxb,pool34
left,left,1,4.4839,MR,easy,8,W98TU3XJxb,pool34
right,right,1,4.3499,MR,easy,9,W98TU3XJxb,pool34
right,right,1,3.0243,MR,easy,10,W98TU3XJxb,pool34
right,right,1,2.9807,MR,easy,11,W98TU3XJxb,pool34
right,right,1,3.7532,MR,easy,12,W98TU3XJxb,pool34
right,right,1,7.4821,MR,easy,13,W98TU3XJxb,pool34
right,right,1,2.5591,MR,easy,14,W98TU3XJxb,pool34
left,left,1,2.6951,MR,easy,15,W98TU3XJxb,pool34
right,right,1,3.4949,MR,easy,16,W98TU3XJxb,pool34
left,left,1,6.4576,MR,medium,1,W98TU3XJxb,pool34
left,left,1,2.9233,MR,medium,2,W98TU3XJxb,pool34
right,right,1,5.4548,MR,medium,3,W98TU3XJxb,pool34
right,right,1,3.8519,MR,medium,4,W98TU3XJxb,pool34
left,left,1,7.2194,MR,medium,5,W98TU3XJxb,pool34
right,right,1,9.5119,MR,medium,6,W98TU3XJxb,pool34
left,left,1,5.4514,MR,medium,7,W98TU3XJxb,pool34
left,left,1,4.0209,MR,medium,8,W98TU3XJxb,pool34
right,right,1,28.4155,MR,medium,9,W98TU3XJxb,pool34
right,right,1,6.6165,MR,medium,10,W98TU3XJxb,pool34
left,left,1,5.8912,MR,medium,11,W98TU3XJxb,pool34
right,right,1,5.1191,MR,medium,12,W98TU3XJxb,pool34
left,left,1,5.4831,MR,medium,13,W98TU3XJxb,pool34
left,left,1,6.3133,MR,medium,14,W98TU3XJxb,pool34
right,right,1,4.547,MR,medium,15,W98TU3XJxb,pool34
left,right,0,5.0502,MR,medium,16,W98TU3XJxb,pool34
left,left,1,6.0423,MR,hard,1,W98TU3XJxb,pool34
left,right,0,12.8326,MR,hard,2,W98TU3XJxb,pool34
left,right,0,4.7267,MR,hard,3,W98TU3XJxb,pool34
right,left,0,4.9507,MR,hard,4,W98TU3XJxb,pool34
right,right,1,6.7872,MR,hard,5,W98TU3XJxb,pool34
right,right,1,7.147,MR,hard,6,W98TU3XJxb,pool34
right,right,1,5.4503,MR,hard,7,W98TU3XJxb,pool34
right,left,0,4.6191,MR,hard,8,W98TU3XJxb,pool34
left,left,1,5.5853,MR,hard,9,W98TU3XJxb,pool34
right,left,0,6.3516,MR,hard,10,W98TU3XJxb,pool34
left,left,1,4.6768,MR,hard,11,W98TU3XJxb,pool34
right,right,1,4.9565,MR,hard,12,W98TU3XJxb,pool34
left,right,0,4.0968,MR,hard,13,W98TU3XJxb,pool34
left,right,0,5.8711,MR,hard,14,W98TU3XJxb,pool34
right,right,1,4.4594,MR,hard,15,W98TU3XJxb,pool34
right,left,0,4.8106,MR,hard,16,W98TU3XJxb,pool34
right,right,1,5.6336,MR,easy,1,yWB1eDgHxE,pool34
right,right,1,3.5474,MR,easy,2,yWB1eDgHxE,pool34
left,right,0,8.3508,MR,easy,3,yWB1eDgHxE,pool34
right,right,1,6.959,MR,easy,4,yWB1eDgHxE,pool34
right,right,1,4.0596,MR,easy,5,yWB1eDgHxE,pool34
right,right,1,3.7843,MR,easy,6,yWB1eDgHxE,pool34
left,right,0,12.1721,MR,easy,7,yWB1eDgHxE,pool34
right,right,1,4.0373,MR,easy,8,yWB1eDgHxE,pool34
left,right,0,4.1404,MR,easy,9,yWB1eDgHxE,pool34
right,right,1,4.3039,MR,easy,10,yWB1eDgHxE,pool34
left,right,0,6.8224,MR,easy,11,yWB1eDgHxE,pool34
right,right,1,3.2875,MR,easy,12,yWB1eDgHxE,pool34
left,right,0,3.3877,MR,easy,13,yWB1eDgHxE,pool34
right,right,1,4.1578,MR,easy,14,yWB1eDgHxE,pool34
right,right,1,8.1405,MR,easy,15,yWB1eDgHxE,pool34
right,right,1,4.4544,MR,easy,16,yWB1eDgHxE,pool34
left,right,0,8.4682,MR,medium,1,yWB1eDgHxE,pool34
right,right,1,3.936,MR,medium,2,yWB1eDgHxE,pool34
right,right,1,5.2142,MR,medium,3,yWB1eDgHxE,pool34
right,right,1,5.2389,MR,medium,4,yWB1eDgHxE,pool34
left,right,0,4.3206,MR,medium,5,yWB1eDgHxE,pool34
left,right,0,5.0404,MR,medium,6,yWB1eDgHxE,pool34
right,right,1,5.722,MR,medium,7,yWB1eDgHxE,pool34
right,right,1,4.5211,MR,medium,8,yWB1eDgHxE,pool34
right,right,1,3.6702,MR,medium,9,yWB1eDgHxE,pool34
left,right,0,5.5086,MR,medium,10,yWB1eDgHxE,pool34
right,right,1,3.4443,MR,medium,11,yWB1eDgHxE,pool34
left,right,0,3.3816,MR,medium,12,yWB1eDgHxE,pool34
left,right,0,5.2383,MR,medium,13,yWB1eDgHxE,pool34
left,right,0,11.0453,MR,medium,14,yWB1eDgHxE,pool34
right,right,1,4.9489,MR,medium,15,yWB1eDgHxE,pool34
left,right,0,4.6727,MR,medium,16,yWB1eDgHxE,pool34
right,right,1,3.9005,MR,hard,1,yWB1eDgHxE,pool34
left,right,0,8.9487,MR,hard,2,yWB1eDgHxE,pool34
left,right,0,5.6594,MR,hard,3,yWB1eDgHxE,pool34
right,right,1,3.9216,MR,hard,4,yWB1eDgHxE,pool34
right,right,1,17.2064,MR,hard,5,yWB1eDgHxE,pool34
right,left,0,9.4596,MR,hard,6,yWB1eDgHxE,pool34
right,right,1,5.6936,MR,hard,7,yWB1eDgHxE,pool34
left,right,0,5.6071,MR,hard,8,yWB1eDgHxE,pool34
left,right,0,7.3226,MR,hard,9,yWB1eDgHxE,pool34
right,right,1,4.018,MR,hard,10,yWB1eDgHxE,pool34
left,right,0,8.407,MR,hard,11,yWB1eDgHxE,pool34
left,right,0,2.9534,MR,hard,12,yWB1eDgHxE,pool34
left,right,0,4.3537,MR,hard,13,yWB1eDgHxE,pool34
left,right,0,4.5879,MR,hard,14,yWB1eDgHxE,pool34
right,right,1,2.9528,MR,hard,15,yWB1eDgHxE,pool34
right,right,1,2.6692,MR,hard,16,yWB1eDgHxE,pool34
left,left,1,3.9537,MR,easy,1,cdCa7qlKqK,pool34
right,right,1,6.2278,MR,easy,2,cdCa7qlKqK,pool34
right,right,1,4.7042,MR,easy,3,cdCa7qlKqK,pool34
left,right,0,5.8074,MR,easy,4,cdCa7qlKqK,pool34
left,right,0,4.6795,MR,easy,5,cdCa7qlKqK,pool34
right,right,1,5.9995,MR,easy,6,cdCa7qlKqK,pool34
left,left,1,5.8554,MR,easy,7,cdCa7qlKqK,pool34
left,left,1,5.9609,MR,easy,8,cdCa7qlKqK,pool34
right,right,1,4.258,MR,easy,9,cdCa7qlKqK,pool34
left,left,1,1.7102,MR,easy,10,cdCa7qlKqK,pool34
left,left,1,4.4246,MR,easy,11,cdCa7qlKqK,pool34
left,left,1,3.9587,MR,easy,12,cdCa7qlKqK,pool34
left,left,1,5.7558,MR,easy,13,cdCa7qlKqK,pool34
left,right,0,4.6014,MR,easy,14,cdCa7qlKqK,pool34
right,right,1,6.4337,MR,easy,15,cdCa7qlKqK,pool34
right,right,1,4.9157,MR,easy,16,cdCa7qlKqK,pool34
right,right,1,3.465,MR,medium,1,cdCa7qlKqK,pool34
right,right,1,4.5985,MR,medium,2,cdCa7qlKqK,pool34
left,right,0,3.3652,MR,medium,3,cdCa7qlKqK,pool34
left,right,0,2.5998,MR,medium,4,cdCa7qlKqK,pool34
right,right,1,4.7598,MR,medium,5,cdCa7qlKqK,pool34
left,right,0,6.8017,MR,medium,6,cdCa7qlKqK,pool34
left,right,0,3.2716,MR,medium,7,cdCa7qlKqK,pool34
right,right,1,3.6209,MR,medium,8,cdCa7qlKqK,pool34
left,left,1,5.6745,MR,medium,9,cdCa7qlKqK,pool34
right,right,1,5.7583,MR,medium,10,cdCa7qlKqK,pool34
left,left,1,4.9793,MR,medium,11,cdCa7qlKqK,pool34
right,right,1,4.6311,MR,medium,12,cdCa7qlKqK,pool34
right,right,1,6.0887,MR,medium,13,cdCa7qlKqK,pool34
left,right,0,8.4181,MR,medium,14,cdCa7qlKqK,pool34
right,right,1,8.4478,MR,medium,15,cdCa7qlKqK,pool34
right,right,1,6.9441,MR,medium,16,cdCa7qlKqK,pool34
right,right,1,6.9595,MR,hard,1,cdCa7qlKqK,pool34
right,left,0,5.6792,MR,hard,2,cdCa7qlKqK,pool34
left,left,1,5.6163,MR,hard,3,cdCa7qlKqK,pool34
right,right,1,7.6118,MR,hard,4,cdCa7qlKqK,pool34
right,left,0,12.2312,MR,hard,5,cdCa7qlKqK,pool34
left,right,0,6.3873,MR,hard,6,cdCa7qlKqK,pool34
right,right,1,12.1841,MR,hard,7,cdCa7qlKqK,pool34
left,left,1,12.1505,MR,hard,8,cdCa7qlKqK,pool34
left,left,1,10.9693,MR,hard,9,cdCa7qlKqK,pool34
left,left,1,8.7334,MR,hard,10,cdCa7qlKqK,pool34
left,left,1,8.4139,MR,hard,11,cdCa7qlKqK,pool34
right,left,0,9.1273,MR,hard,12,cdCa7qlKqK,pool34
left,left,1,7.4497,MR,hard,13,cdCa7qlKqK,pool34
right,right,1,5.2291,MR,hard,14,cdCa7qlKqK,pool34
left,right,0,12.0387,MR,hard,15,cdCa7qlKqK,pool34
right,left,0,6.571,MR,hard,16,cdCa7qlKqK,pool34
left,right,0,2.394,MR,easy,1,0dkwUmCwzJ,pool34
right,left,0,5.3267,MR,easy,2,0dkwUmCwzJ,pool34
right,left,0,1.8216,MR,easy,3,0dkwUmCwzJ,pool34
right,left,0,1.2988,MR,easy,4,0dkwUmCwzJ,pool34
right,left,0,1.1414,MR,easy,5,0dkwUmCwzJ,pool34
right,right,1,3.7315,MR,easy,6,0dkwUmCwzJ,pool34
right,right,1,3.2698,MR,easy,7,0dkwUmCwzJ,pool34
left,right,0,2.8183,MR,easy,8,0dkwUmCwzJ,pool34
left,right,0,1.6027,MR,easy,9,0dkwUmCwzJ,pool34
right,right,1,2.2755,MR,easy,10,0dkwUmCwzJ,pool34
left,right,0,0.9116,MR,easy,11,0dkwUmCwzJ,pool34
right,right,1,0.7097,MR,easy,12,0dkwUmCwzJ,pool34
left,right,0,0.5714,MR,easy,13,0dkwUmCwzJ,pool34
right,right,1,1.8485,MR,easy,14,0dkwUmCwzJ,pool34
left,right,0,0.5877,MR,easy,15,0dkwUmCwzJ,pool34
left,right,0,0.4664,MR,easy,16,0dkwUmCwzJ,pool34
left,right,0,5.3589,MR,medium,1,0dkwUmCwzJ,pool34
right,right,1,9.3998,MR,medium,2,0dkwUmCwzJ,pool34
right,right,1,4.4272,MR,medium,3,0dkwUmCwzJ,pool34
right,left,0,2.1829,MR,medium,4,0dkwUmCwzJ,pool34
left,right,0,3.4893,MR,medium,5,0dkwUmCwzJ,pool34
left,right,0,5.4615,MR,medium,6,0dkwUmCwzJ,pool34
left,left,1,2.8361,MR,medium,7,0dkwUmCwzJ,pool34
right,left,0,6.939,MR,medium,8,0dkwUmCwzJ,pool34
left,left,1,6.9049,MR,medium,9,0dkwUmCwzJ,pool34
left,right,0,1.5533,MR,medium,10,0dkwUmCwzJ,pool34
right,right,1,7.2393,MR,medium,11,0dkwUmCwzJ,pool34
left,right,0,2.1603,MR,medium,12,0dkwUmCwzJ,pool34
right,left,0,1.2829,MR,medium,13,0dkwUmCwzJ,pool34
right,right,1,3.2619,MR,medium,14,0dkwUmCwzJ,pool34
