trials,task,level,n,rt,acc,id,pool
1,MS,easy,3,13.0232,1,jKBHzXx0Pg,pool1
1,MS,medium,5,39.362,1,jKBHzXx0Pg,pool1
1,MS,hard,7,44.2111,1,jKBHzXx0Pg,pool1
2,MS,easy,3,10.8322,1,jKBHzXx0Pg,pool1
2,MS,medium,5,42.2492,1,jKBHzXx0Pg,pool1
2,MS,hard,7,42.3638,1,jKBHzXx0Pg,pool1
3,MS,easy,3,11.5821,1,jKBHzXx0Pg,pool1
3,MS,medium,5,36.348,1,jKBHzXx0Pg,pool1
3,MS,hard,5,36.8477,0.7142857142857143,jKBHzXx0Pg,pool1
4,MS,easy,3,15.1489,1,jKBHzXx0Pg,pool1
4,MS,medium,5,35.0483,1,jKBHzXx0Pg,pool1
4,MS,hard,7,40.7307,1,jKBHzXx0Pg,pool1
5,MS,easy,3,9.7477,1,jKBHzXx0Pg,pool1
5,MS,medium,5,38.0475,1,jKBHzXx0Pg,pool1
5,MS,hard,7,38.5972,1,jKBHzXx0Pg,pool1
6,MS,easy,3,11.5993,1,jKBHzXx0Pg,pool1
6,MS,medium,5,32.6823,1,jKBHzXx0Pg,pool1
6,MS,hard,6,35.4817,0.8571428571428571,jKBHzXx0Pg,pool1
7,MS,easy,3,10.515,1,jKBHzXx0Pg,pool1
7,MS,medium,5,30.3146,1,jKBHzXx0Pg,pool1
7,MS,hard,7,40.7151,1,jKBHzXx0Pg,pool1
8,MS,easy,3,11.732,1,jKBHzXx0Pg,pool1
8,MS,medium,5,30.0976,1,jKBHzXx0Pg,pool1
8,MS,hard,6,35.0976,0.8571428571428571,jKBHzXx0Pg,pool1
9,MS,easy,3,11.8491,1,jKBHzXx0Pg,pool1
9,MS,medium,5,31.5483,1,jKBHzXx0Pg,pool1
9,MS,hard,6,43.9974,0.8571428571428571,jKBHzXx0Pg,pool1
10,MS,easy,3,12.3318,1,jKBHzXx0Pg,pool1
10,MS,medium,5,36.5642,1,jKBHzXx0Pg,pool1
10,MS,hard,7,38.8142,1,jKBHzXx0Pg,pool1
11,MS,easy,3,22.2821,1,jKBHzXx0Pg,pool1
11,MS,medium,5,31.1147,1,jKBHzXx0Pg,pool1
11,MS,hard,7,33.1977,1,jKBHzXx0Pg,pool1
12,MS,easy,3,10.8488,1,jKBHzXx0Pg,pool1
12,MS,medium,5,30.6498,1,jKBHzXx0Pg,pool1
12,MS,hard,6,36.149,0.8571428571428571,jKBHzXx0Pg,pool1
13,MS,easy,3,10.2659,1,jKBHzXx0Pg,pool1
13,MS,medium,4,31.7648,0.8,jKBHzXx0Pg,pool1
13,MS,hard,7,36.38,1,jKBHzXx0Pg,pool1
14,MS,easy,3,12.3334,1,jKBHzXx0Pg,pool1
14,MS,medium,5,27.5475,1,jKBHzXx0Pg,pool1
14,MS,hard,6,34.5315,0.8571428571428571,jKBHzXx0Pg,pool1
15,MS,easy,3,23.3153,1,jKBHzXx0Pg,pool1
15,MS,medium,5,28.5981,1,jKBHzXx0Pg,pool1
15,MS,hard,6,36.2158,0.8571428571428571,jKBHzXx0Pg,pool1
16,MS,easy,3,12.8319,1,jKBHzXx0Pg,pool1
16,MS,medium,5,26.8481,1,jKBHzXx0Pg,pool1
16,MS,hard,7,36.2305,1,jKBHzXx0Pg,pool1
1,MS,easy,3,12.8403,1,TqUBvW8Aaz,pool1
1,MS,medium,4,26.2547,0.8,TqUBvW8Aaz,pool1
1,MS,hard,0,130.4302,0,TqUBvW8Aaz,pool1
2,MS,easy,3,13.3151,1,TqUBvW8Aaz,pool1
2,MS,medium,5,58.8068,1,TqUBvW8Aaz,pool1
2,MS,hard,6,52.8864,0.8571428571428571,TqUBvW8Aaz,pool1
3,MS,easy,3,13.2246,1,TqUBvW8Aaz,pool1
3,MS,medium,5,78.3581,1,TqUBvW8Aaz,pool1
3,MS,hard,5,51.8395,0.7142857142857143,TqUBvW8Aaz,pool1
4,MS,easy,3,13.0211,1,TqUBvW8Aaz,pool1
4,MS,medium,5,51.9755,1,TqUBvW8Aaz,pool1
4,MS,hard,5,53.7488,0.7142857142857143,TqUBvW8Aaz,pool1
5,MS,easy,3,14.7935,1,TqUBvW8Aaz,pool1
5,MS,medium,5,50.445,1,TqUBvW8Aaz,pool1
5,MS,hard,6,46.7716,0.8571428571428571,TqUBvW8Aaz,pool1
6,MS,easy,3,13.8213,1,TqUBvW8Aaz,pool1
6,MS,medium,5,44.1389,1,TqUBvW8Aaz,pool1
6,MS,hard,7,57.3068,1,TqUBvW8Aaz,pool1
7,MS,easy,2,15.0109,0.6666666666666666,TqUBvW8Aaz,pool1
7,MS,medium,4,39.5712,0.8,TqUBvW8Aaz,pool1
7,MS,hard,4,40.8005,0.5714285714285714,TqUBvW8Aaz,pool1
8,MS,easy,2,14.0577,0.6666666666666666,TqUBvW8Aaz,pool1
8,MS,medium,5,47.4845,1,TqUBvW8Aaz,pool1
8,MS,hard,4,47.2648,0.5714285714285714,TqUBvW8Aaz,pool1
9,MS,easy,2,17.947,0.6666666666666666,TqUBvW8Aaz,pool1
9,MS,medium,5,41.6861,1,TqUBvW8Aaz,pool1
9,MS,hard,5,40.2366,0.7142857142857143,TqUBvW8Aaz,pool1
10,MS,easy,2,14.3616,0.6666666666666666,TqUBvW8Aaz,pool1
10,MS,medium,5,41.7994,1,TqUBvW8Aaz,pool1
10,MS,hard,5,41.8176,0.7142857142857143,TqUBvW8Aaz,pool1
11,MS,easy,3,15.5968,1,TqUBvW8Aaz,pool1
11,MS,medium,5,37.1462,1,TqUBvW8Aaz,pool1
11,MS,hard,5,39.1005,0.7142857142857143,TqUBvW8Aaz,pool1
12,MS,easy,3,12.6486,1,TqUBvW8Aaz,pool1
12,MS,medium,5,48.843,1,TqUBvW8Aaz,pool1
12,MS,hard,5,37.4846,0.7142857142857143,TqUBvW8Aaz,pool1
13,MS,easy,3,16.9314,1,TqUBvW8Aaz,pool1
13,MS,medium,5,37.3696,1,TqUBvW8Aaz,pool1
13,MS,hard,5,49.3314,0.7142857142857143,TqUBvW8Aaz,pool1
14,MS,easy,3,11.2404,1,TqUBvW8Aaz,pool1
14,MS,medium,5,36.3986,1,TqUBvW8Aaz,pool1
14,MS,hard,5,51.526,0.7142857142857143,TqUBvW8Aaz,pool1
15,MS,easy,3,13.954,1,TqUBvW8Aaz,pool1
15,MS,medium,5,36.2024,1,TqUBvW8Aaz,pool1
15,MS,hard,5,36.9506,0.7142857142857143,TqUBvW8Aaz,pool1
16,MS,easy,3,13.2781,1,TqUBvW8Aaz,pool1
16,MS,medium,5,36.6981,1,TqUBvW8Aaz,pool1
16,MS,hard,5,36.555,0.7142857142857143,TqUBvW8Aaz,pool1
1,MS,easy,3,10.976,1,WAh9qhgg6o,pool1
1,MS,medium,4,35.833,0.8,WAh9qhgg6o,pool1
1,MS,hard,5,24.935,0.7142857142857143,WAh9qhgg6o,pool1
2,MS,easy,3,7.8,1,WAh9qhgg6o,pool1
2,MS,medium,4,36.239,0.8,WAh9qhgg6o,pool1
2,MS,hard,3,23.447,0.42857142857142855,WAh9qhgg6o,pool1
3,MS,easy,2,11.651,0.6666666666666666,WAh9qhgg6o,pool1
3,MS,medium,4,54.573,0.8,WAh9qhgg6o,pool1
3,MS,hard,0,13.719,0,WAh9qhgg6o,pool1
4,MS,easy,3,11.078,1,WAh9qhgg6o,pool1
4,MS,medium,5,26.293,1,WAh9qhgg6o,pool1
4,MS,hard,3,20.731,0.42857142857142855,WAh9qhgg6o,pool1
5,MS,easy,3,14.925,1,WAh9qhgg6o,pool1
5,MS,medium,5,35.26,1,WAh9qhgg6o,pool1
5,MS,hard,2,31.679,0.2857142857142857,WAh9qhgg6o,pool1
6,MS,easy,3,9.708,1,WAh9qhgg6o,pool1
6,MS,medium,4,35.092,0.8,WAh9qhgg6o,pool1
6,MS,hard,5,20.843,0.7142857142857143,WAh9qhgg6o,pool1
7,MS,easy,3,9.294,1,WAh9qhgg6o,pool1
7,MS,medium,3,28.195,0.6,WAh9qhgg6o,pool1
7,MS,hard,4,30.225,0.5714285714285714,WAh9qhgg6o,pool1
8,MS,easy,3,8.186,1,WAh9qhgg6o,pool1
8,MS,medium,1,37.025,0.2,WAh9qhgg6o,pool1
8,MS,hard,5,28.652,0.7142857142857143,WAh9qhgg6o,pool1
9,MS,easy,2,10.76,0.6666666666666666,WAh9qhgg6o,pool1
9,MS,medium,5,26.549,1,WAh9qhgg6o,pool1
9,MS,hard,6,35.266,0.8571428571428571,WAh9qhgg6o,pool1
10,MS,easy,2,14.202,0.6666666666666666,WAh9qhgg6o,pool1
10,MS,medium,2,26.582,0.4,WAh9qhgg6o,pool1
10,MS,hard,4,30.422,0.5714285714285714,WAh9qhgg6o,pool1
11,MS,easy,3,14.092,1,WAh9qhgg6o,pool1
11,MS,medium,4,34.918,0.8,WAh9qhgg6o,pool1
11,MS,hard,6,33.227,0.8571428571428571,WAh9qhgg6o,pool1
12,MS,easy,3,9.48,1,WAh9qhgg6o,pool1
12,MS,medium,5,26.819,1,WAh9qhgg6o,pool1
12,MS,hard,1,21.972,0.14285714285714285,WAh9qhgg6o,pool1
13,MS,easy,3,11.349,1,WAh9qhgg6o,pool1
13,MS,medium,5,43.932,1,WAh9qhgg6o,pool1
13,MS,hard,5,33.103,0.7142857142857143,WAh9qhgg6o,pool1
14,MS,easy,3,10.323,1,WAh9qhgg6o,pool1
14,MS,medium,4,40.456,0.8,WAh9qhgg6o,pool1
14,MS,hard,5,31.318,0.7142857142857143,WAh9qhgg6o,pool1
15,MS,easy,1,9.956,0.3333333333333333,WAh9qhgg6o,pool1
15,MS,medium,5,28.799,1,WAh9qhgg6o,pool1
15,MS,hard,6,27.219,0.8571428571428571,WAh9qhgg6o,pool1
16,MS,easy,0,10.973,0,WAh9qhgg6o,pool1
16,MS,medium,4,39.245,0.8,WAh9qhgg6o,pool1
16,MS,hard,6,28.596,0.8571428571428571,WAh9qhgg6o,pool1
1,MS,easy,3,12.53,1,6xDo1DDaCf,pool1
1,MS,medium,5,20.269,1,6xDo1DDaCf,pool1
1,MS,hard,5,24.308,0.7142857142857143,6xDo1DDaCf,pool1
2,MS,easy,3,11.287,1,6xDo1DDaCf,pool1
2,MS,medium,5,24.454,1,6xDo1DDaCf,pool1
2,MS,hard,7,26.919,1,6xDo1DDaCf,pool1
3,MS,easy,3,14.567,1,6xDo1DDaCf,pool1
3,MS,medium,5,23.57,1,6xDo1DDaCf,pool1
3,MS,hard,7,27.532,1,6xDo1DDaCf,pool1
4,MS,easy,3,20.084,1,6xDo1DDaCf,pool1
4,MS,medium,5,26.606,1,6xDo1DDaCf,pool1
4,MS,hard,7,28.214,1,6xDo1DDaCf,pool1
5,MS,easy,3,12.159,1,6xDo1DDaCf,pool1
5,MS,medium,5,19.788,1,6xDo1DDaCf,pool1
5,MS,hard,7,31.963,1,6xDo1DDaCf,pool1
6,MS,easy,3,12.168,1,6xDo1DDaCf,pool1
6,MS,medium,5,21.419,1,6xDo1DDaCf,pool1
6,MS,hard,7,32.137,1,6xDo1DDaCf,pool1
7,MS,easy,3,11.311,1,6xDo1DDaCf,pool1
7,MS,medium,5,18.245,1,6xDo1DDaCf,pool1
7,MS,hard,7,26.741,1,6xDo1DDaCf,pool1
8,MS,easy,3,11.589,1,6xDo1DDaCf,pool1
8,MS,medium,5,19.449,1,6xDo1DDaCf,pool1
8,MS,hard,7,37.026,1,6xDo1DDaCf,pool1
9,MS,easy,3,15.638,1,6xDo1DDaCf,pool1
9,MS,medium,5,19.887,1,6xDo1DDaCf,pool1
9,MS,hard,7,24.666,1,6xDo1DDaCf,pool1
10,MS,easy,3,14.722,1,6xDo1DDaCf,pool1
10,MS,medium,5,19.755,1,6xDo1DDaCf,pool1
10,MS,hard,7,25.587,1,6xDo1DDaCf,pool1
11,MS,easy,3,15.248,1,6xDo1DDaCf,pool1
11,MS,medium,5,18.496,1,6xDo1DDaCf,pool1
11,MS,hard,7,26.36,1,6xDo1DDaCf,pool1
12,MS,easy,3,12.806,1,6xDo1DDaCf,pool1
12,MS,medium,5,18.387,1,6xDo1DDaCf,pool1
12,MS,hard,7,29.925,1,6xDo1DDaCf,pool1
13,MS,easy,3,19.989,1,6xDo1DDaCf,pool1
13,MS,medium,5,19.062,1,6xDo1DDaCf,pool1
13,MS,hard,7,25.63,1,6xDo1DDaCf,pool1
14,MS,easy,3,12.874,1,6xDo1DDaCf,pool1
14,MS,medium,5,17.982,1,6xDo1DDaCf,pool1
14,MS,hard,7,28.24,1,6xDo1DDaCf,pool1
15,MS,easy,3,10.597,1,6xDo1DDaCf,pool1
15,MS,medium,5,18.448,1,6xDo1DDaCf,pool1
15,MS,hard,7,31.108,1,6xDo1DDaCf,pool1
16,MS,easy,3,11.466,1,6xDo1DDaCf,pool1
16,MS,medium,5,20.95,1,6xDo1DDaCf,pool1
16,MS,hard,7,26.623,1,6xDo1DDaCf,pool1
1,MS,easy,3,13.0165,1,9ZffIZqFHz,pool1
1,MS,medium,5,16.0465,1,9ZffIZqFHz,pool1
1,MS,hard,7,32.3908,1,9ZffIZqFHz,pool1
2,MS,easy,3,8.5264,1,9ZffIZqFHz,pool1
2,MS,medium,5,20.31,1,9ZffIZqFHz,pool1
2,MS,hard,7,55.961,1,9ZffIZqFHz,pool1
3,MS,easy,3,16.7102,1,9ZffIZqFHz,pool1
3,MS,medium,5,21.6371,1,9ZffIZqFHz,pool1
3,MS,hard,7,34.8658,1,9ZffIZqFHz,pool1
4,MS,easy,3,9.1615,1,9ZffIZqFHz,pool1
4,MS,medium,4,20.9136,0.8,9ZffIZqFHz,pool1
4,MS,hard,7,33.2068,1,9ZffIZqFHz,pool1
5,MS,easy,3,15.6216,1,9ZffIZqFHz,pool1
5,MS,medium,5,17.8031,1,9ZffIZqFHz,pool1
5,MS,hard,7,33.1586,1,9ZffIZqFHz,pool1
6,MS,easy,3,9.9013,1,9ZffIZqFHz,pool1
6,MS,medium,5,14.9043,1,9ZffIZqFHz,pool1
6,MS,hard,6,50.7502,0.8571428571428571,9ZffIZqFHz,pool1
7,MS,easy,3,8.188,1,9ZffIZqFHz,pool1
7,MS,medium,5,18.7575,1,9ZffIZqFHz,pool1
7,MS,hard,7,35.5613,1,9ZffIZqFHz,pool1
8,MS,easy,3,8.9929,1,9ZffIZqFHz,pool1
8,MS,medium,5,15.0121,1,9ZffIZqFHz,pool1
8,MS,hard,7,41.4203,1,9ZffIZqFHz,pool1
9,MS,easy,3,9.4095,1,9ZffIZqFHz,pool1
9,MS,medium,5,16.1416,1,9ZffIZqFHz,pool1
9,MS,hard,5,37.6087,0.7142857142857143,9ZffIZqFHz,pool1
10,MS,easy,3,9.1576,1,9ZffIZqFHz,pool1
10,MS,medium,5,17.2626,1,9ZffIZqFHz,pool1
10,MS,hard,6,35.2392,0.8571428571428571,9ZffIZqFHz,pool1
11,MS,easy,3,9.0069,1,9ZffIZqFHz,pool1
11,MS,medium,5,15.977,1,9ZffIZqFHz,pool1
11,MS,hard,7,31.6035,1,9ZffIZqFHz,pool1
12,MS,easy,3,11.0992,1,9ZffIZqFHz,pool1
12,MS,medium,5,16.1601,1,9ZffIZqFHz,pool1
12,MS,hard,7,44.429,1,9ZffIZqFHz,pool1
13,MS,easy,3,10.4192,1,9ZffIZqFHz,pool1
13,MS,medium,5,15.2866,1,9ZffIZqFHz,pool1
13,MS,hard,6,35.8467,0.8571428571428571,9ZffIZqFHz,pool1
14,MS,easy,3,12.7247,1,9ZffIZqFHz,pool1
14,MS,medium,5,18.359,1,9ZffIZqFHz,pool1
14,MS,hard,7,32.4639,1,9ZffIZqFHz,pool1
15,MS,easy,3,9.1223,1,9ZffIZqFHz,pool1
15,MS,medium,5,22.9577,1,9ZffIZqFHz,pool1
15,MS,hard,6,46.6241,0.8571428571428571,9ZffIZqFHz,pool1
16,MS,easy,3,10.193,1,9ZffIZqFHz,pool1
16,MS,medium,5,18.734,1,9ZffIZqFHz,pool1
16,MS,hard,6,27.2214,0.8571428571428571,9ZffIZqFHz,pool1
1,MS,easy,3,16.617,1,wiRZfBYOru,pool2
1,MS,medium,5,55.7636,1,wiRZfBYOru,pool2
1,MS,hard,4,92.6617,0.5714285714285714,wiRZfBYOru,pool2
2,MS,easy,3,29.0992,1,wiRZfBYOru,pool2
2,MS,medium,5,41.8656,1,wiRZfBYOru,pool2
2,MS,hard,7,59.2993,1,wiRZfBYOru,pool2
3,MS,easy,3,17.8991,1,wiRZfBYOru,pool2
3,MS,medium,5,35.7651,1,wiRZfBYOru,pool2
3,MS,hard,7,55.3976,1,wiRZfBYOru,pool2
4,MS,easy,3,17.5997,1,wiRZfBYOru,pool2
4,MS,medium,5,42.0299,1,wiRZfBYOru,pool2
4,MS,hard,7,47.5983,1,wiRZfBYOru,pool2
5,MS,easy,2,24.3324,0.6666666666666666,wiRZfBYOru,pool2
5,MS,medium,5,34.8317,1,wiRZfBYOru,pool2
5,MS,hard,7,49.7649,1,wiRZfBYOru,pool2
6,MS,easy,3,19.3662,1,wiRZfBYOru,pool2
6,MS,medium,5,42.4325,1,wiRZfBYOru,pool2
6,MS,hard,6,52.5321,0.8571428571428571,wiRZfBYOru,pool2
7,MS,easy,3,18.1328,1,wiRZfBYOru,pool2
7,MS,medium,5,33.4657,1,wiRZfBYOru,pool2
7,MS,hard,7,53.4998,1,wiRZfBYOru,pool2
8,MS,easy,3,34.2999,1,wiRZfBYOru,pool2
8,MS,medium,5,37.4991,1,wiRZfBYOru,pool2
8,MS,hard,7,58.132,1,wiRZfBYOru,pool2
9,MS,easy,3,34.0324,1,wiRZfBYOru,pool2
9,MS,medium,5,37.6318,1,wiRZfBYOru,pool2
9,MS,hard,7,92.8977,1,wiRZfBYOru,pool2
10,MS,easy,3,25.3656,1,wiRZfBYOru,pool2
10,MS,medium,4,38.6327,0.8,wiRZfBYOru,pool2
10,MS,hard,7,57.2646,1,wiRZfBYOru,pool2
11,MS,easy,3,16.999,1,wiRZfBYOru,pool2
11,MS,medium,5,37.9984,1,wiRZfBYOru,pool2
11,MS,hard,7,45.4319,1,wiRZfBYOru,pool2
12,MS,easy,2,378.4967,0.6666666666666666,wiRZfBYOru,pool2
12,MS,medium,5,33.2313,1,wiRZfBYOru,pool2
12,MS,hard,7,46.0644,1,wiRZfBYOru,pool2
13,MS,easy,3,113.4988,1,wiRZfBYOru,pool2
13,MS,medium,5,37.1985,1,wiRZfBYOru,pool2
13,MS,hard,7,45.231,1,wiRZfBYOru,pool2
14,MS,easy,3,15.7332,1,wiRZfBYOru,pool2
14,MS,medium,5,38.0656,1,wiRZfBYOru,pool2
14,MS,hard,7,44.333,1,wiRZfBYOru,pool2
15,MS,easy,3,21.3654,1,wiRZfBYOru,pool2
15,MS,medium,5,40.2319,1,wiRZfBYOru,pool2
15,MS,hard,7,52.4991,1,wiRZfBYOru,pool2
16,MS,easy,3,20.2995,1,wiRZfBYOru,pool2
16,MS,medium,5,41.5642,1,wiRZfBYOru,pool2
16,MS,hard,7,49.9986,1,wiRZfBYOru,pool2
1,MS,easy,3,17.3004,1,cCWrG11sgp,pool2
1,MS,medium,5,30.6017,1,cCWrG11sgp,pool2
1,MS,hard,7,41.4527,1,cCWrG11sgp,pool2
2,MS,easy,3,15.2512,1,cCWrG11sgp,pool2
2,MS,medium,4,30.1861,0.8,cCWrG11sgp,pool2
2,MS,hard,7,31.2027,1,cCWrG11sgp,pool2
3,MS,easy,3,16.0845,1,cCWrG11sgp,pool2
3,MS,medium,5,30.4195,1,cCWrG11sgp,pool2
3,MS,hard,7,34.4698,1,cCWrG11sgp,pool2
4,MS,easy,3,15.551,1,cCWrG11sgp,pool2
4,MS,medium,5,38.3867,1,cCWrG11sgp,pool2
4,MS,hard,7,34.4528,1,cCWrG11sgp,pool2
5,MS,easy,3,20.6349,1,cCWrG11sgp,pool2
5,MS,medium,5,24.6522,1,cCWrG11sgp,pool2
5,MS,hard,7,29.886,1,cCWrG11sgp,pool2
6,MS,easy,3,17.1181,1,cCWrG11sgp,pool2
6,MS,medium,5,25.5689,1,cCWrG11sgp,pool2
6,MS,hard,7,30.9526,1,cCWrG11sgp,pool2
7,MS,easy,3,13.4008,1,cCWrG11sgp,pool2
7,MS,medium,5,26.9192,1,cCWrG11sgp,pool2
7,MS,hard,7,33.503,1,cCWrG11sgp,pool2
8,MS,easy,3,15.0343,1,cCWrG11sgp,pool2
8,MS,medium,5,21.1185,1,cCWrG11sgp,pool2
8,MS,hard,7,31.603,1,cCWrG11sgp,pool2
9,MS,easy,3,15.8012,1,cCWrG11sgp,pool2
9,MS,medium,5,26.0354,1,cCWrG11sgp,pool2
9,MS,hard,7,32.6527,1,cCWrG11sgp,pool2
10,MS,easy,3,16.5514,1,cCWrG11sgp,pool2
10,MS,medium,5,24.6685,1,cCWrG11sgp,pool2
10,MS,hard,7,36.1864,1,cCWrG11sgp,pool2
11,MS,easy,3,11.5342,1,cCWrG11sgp,pool2
11,MS,medium,5,54.5216,1,cCWrG11sgp,pool2
11,MS,hard,7,34.0362,1,cCWrG11sgp,pool2
12,MS,easy,3,16.9182,1,cCWrG11sgp,pool2
12,MS,medium,5,27.069,1,cCWrG11sgp,pool2
12,MS,hard,7,29.9193,1,cCWrG11sgp,pool2
13,MS,easy,3,13.8512,1,cCWrG11sgp,pool2
13,MS,medium,5,26.9523,1,cCWrG11sgp,pool2
13,MS,hard,7,25.1854,1,cCWrG11sgp,pool2
14,MS,easy,3,12.184,1,cCWrG11sgp,pool2
14,MS,medium,5,30.3693,1,cCWrG11sgp,pool2
14,MS,hard,1,23.2353,0.14285714285714285,cCWrG11sgp,pool2
15,MS,easy,3,14.501,1,cCWrG11sgp,pool2
15,MS,medium,5,28.9359,1,cCWrG11sgp,pool2
15,MS,hard,7,34.0696,1,cCWrG11sgp,pool2
16,MS,easy,3,16.5679,1,cCWrG11sgp,pool2
16,MS,medium,5,21.6353,1,cCWrG11sgp,pool2
16,MS,hard,7,37.0865,1,cCWrG11sgp,pool2
1,MS,easy,3,18.182,1,gI6hCgCchT,pool2
1,MS,medium,2,79.1265,0.4,gI6hCgCchT,pool2
1,MS,hard,3,19.4269,0.42857142857142855,gI6hCgCchT,pool2
2,MS,easy,3,20.7486,1,gI6hCgCchT,pool2
2,MS,medium,5,57.0474,1,gI6hCgCchT,pool2
2,MS,hard,4,37.1815,0.5714285714285714,gI6hCgCchT,pool2
3,MS,easy,3,15.5317,1,gI6hCgCchT,pool2
3,MS,medium,5,40.9645,1,gI6hCgCchT,pool2
3,MS,hard,5,32.7318,0.7142857142857143,gI6hCgCchT,pool2
4,MS,easy,3,17.9328,1,gI6hCgCchT,pool2
4,MS,medium,4,44.0148,0.8,gI6hCgCchT,pool2
4,MS,hard,5,36.948,0.7142857142857143,gI6hCgCchT,pool2
5,MS,easy,3,19.8634,1,gI6hCgCchT,pool2
5,MS,medium,2,95.5793,0.4,gI6hCgCchT,pool2
5,MS,hard,5,30.7818,0.7142857142857143,gI6hCgCchT,pool2
6,MS,easy,2,31.7688,0.6666666666666666,gI6hCgCchT,pool2
6,MS,medium,4,47.0141,0.8,gI6hCgCchT,pool2
6,MS,hard,5,53.5673,0.7142857142857143,gI6hCgCchT,pool2
7,MS,easy,2,17.3985,0.6666666666666666,gI6hCgCchT,pool2
7,MS,medium,5,33.7141,1,gI6hCgCchT,pool2
7,MS,hard,4,28.0166,0.5714285714285714,gI6hCgCchT,pool2
8,MS,easy,3,27.734,1,gI6hCgCchT,pool2
8,MS,medium,4,55.9306,0.8,gI6hCgCchT,pool2
8,MS,hard,4,38.099,0.5714285714285714,gI6hCgCchT,pool2
9,MS,easy,2,21.6999,0.6666666666666666,gI6hCgCchT,pool2
9,MS,medium,4,70.5132,0.8,gI6hCgCchT,pool2
9,MS,hard,3,25.2499,0.42857142857142855,gI6hCgCchT,pool2
10,MS,easy,3,19.0368,1,gI6hCgCchT,pool2
10,MS,medium,4,28.4151,0.8,gI6hCgCchT,pool2
10,MS,hard,4,28.9517,0.5714285714285714,gI6hCgCchT,pool2
11,MS,easy,3,14.2155,1,gI6hCgCchT,pool2
11,MS,medium,3,46.5312,0.6,gI6hCgCchT,pool2
11,MS,hard,0,6.868,0,gI6hCgCchT,pool2
12,MS,easy,3,17.6337,1,gI6hCgCchT,pool2
12,MS,medium,3,62.7474,0.6,gI6hCgCchT,pool2
12,MS,hard,5,31.0853,0.7142857142857143,gI6hCgCchT,pool2
13,MS,easy,3,31.7657,1,gI6hCgCchT,pool2
13,MS,medium,5,39.4646,1,gI6hCgCchT,pool2
13,MS,hard,2,21.0157,0.2857142857142857,gI6hCgCchT,pool2
14,MS,easy,3,14.1358,1,gI6hCgCchT,pool2
14,MS,medium,3,77.7959,0.6,gI6hCgCchT,pool2
14,MS,hard,3,26.5164,0.42857142857142855,gI6hCgCchT,pool2
15,MS,easy,3,16.083,1,gI6hCgCchT,pool2
15,MS,medium,2,39.564,0.4,gI6hCgCchT,pool2
15,MS,hard,3,27.7281,0.42857142857142855,gI6hCgCchT,pool2
16,MS,easy,2,30.786,0.6666666666666666,gI6hCgCchT,pool2
16,MS,medium,4,51.6307,0.8,gI6hCgCchT,pool2
16,MS,hard,3,23.2015,0.42857142857142855,gI6hCgCchT,pool2
1,MS,easy,3,32.4836,1,kGWL9y5AS9,pool2
1,MS,medium,5,23.2765,1,kGWL9y5AS9,pool2
1,MS,hard,7,39.5818,1,kGWL9y5AS9,pool2
2,MS,easy,3,18.5127,1,kGWL9y5AS9,pool2
2,MS,medium,5,20.2709,1,kGWL9y5AS9,pool2
2,MS,hard,7,37.9747,1,kGWL9y5AS9,pool2
3,MS,easy,3,16.8562,1,kGWL9y5AS9,pool2
3,MS,medium,5,27.8432,1,kGWL9y5AS9,pool2
3,MS,hard,7,43.7822,1,kGWL9y5AS9,pool2
4,MS,easy,3,17.4212,1,kGWL9y5AS9,pool2
4,MS,medium,5,27.5863,1,kGWL9y5AS9,pool2
4,MS,hard,7,39.1669,1,kGWL9y5AS9,pool2
5,MS,easy,3,19.5118,1,kGWL9y5AS9,pool2
5,MS,medium,5,22.496,1,kGWL9y5AS9,pool2
5,MS,hard,7,36.7181,1,kGWL9y5AS9,pool2
6,MS,easy,3,16.6471,1,kGWL9y5AS9,pool2
6,MS,medium,5,21.1533,1,kGWL9y5AS9,pool2
6,MS,hard,7,41.2013,1,kGWL9y5AS9,pool2
7,MS,easy,3,22.1545,1,kGWL9y5AS9,pool2
7,MS,medium,5,19.5784,1,kGWL9y5AS9,pool2
7,MS,hard,7,32.4442,1,kGWL9y5AS9,pool2
8,MS,easy,3,18.6879,1,kGWL9y5AS9,pool2
8,MS,medium,5,30.4018,1,kGWL9y5AS9,pool2
8,MS,hard,7,38.0501,1,kGWL9y5AS9,pool2
9,MS,easy,3,18.6287,1,kGWL9y5AS9,pool2
9,MS,medium,5,22.0302,1,kGWL9y5AS9,pool2
9,MS,hard,7,40.566,1,kGWL9y5AS9,pool2
10,MS,easy,3,13.8651,1,kGWL9y5AS9,pool2
10,MS,medium,5,19.7133,1,kGWL9y5AS9,pool2
10,MS,hard,7,34.2177,1,kGWL9y5AS9,pool2
11,MS,easy,3,23.5276,1,kGWL9y5AS9,pool2
11,MS,medium,5,27.2024,1,kGWL9y5AS9,pool2
11,MS,hard,7,54.2968,1,kGWL9y5AS9,pool2
12,MS,easy,3,19.346,1,kGWL9y5AS9,pool2
12,MS,medium,5,22.7451,1,kGWL9y5AS9,pool2
12,MS,hard,7,34.6924,1,kGWL9y5AS9,pool2
13,MS,easy,3,18.6628,1,kGWL9y5AS9,pool2
13,MS,medium,5,22.1699,1,kGWL9y5AS9,pool2
13,MS,hard,7,37.7413,1,kGWL9y5AS9,pool2
14,MS,easy,3,20.0633,1,kGWL9y5AS9,pool2
14,MS,medium,4,20.6952,0.8,kGWL9y5AS9,pool2
14,MS,hard,7,36.6943,1,kGWL9y5AS9,pool2
15,MS,easy,3,20.8872,1,kGWL9y5AS9,pool2
15,MS,medium,5,21.512,1,kGWL9y5AS9,pool2
15,MS,hard,7,35.8673,1,kGWL9y5AS9,pool2
16,MS,easy,3,18.3376,1,kGWL9y5AS9,pool2
16,MS,medium,5,21.687,1,kGWL9y5AS9,pool2
16,MS,hard,7,32.2428,1,kGWL9y5AS9,pool2
1,MS,easy,3,28.0704,1,ntoLpzjCrW,pool2
1,MS,medium,3,28.1503,0.6,ntoLpzjCrW,pool2
1,MS,hard,5,49.5641,0.7142857142857143,ntoLpzjCrW,pool2
2,MS,easy,3,23.8958,1,ntoLpzjCrW,pool2
2,MS,medium,3,24.8887,0.6,ntoLpzjCrW,pool2
2,MS,hard,5,49.2496,0.7142857142857143,ntoLpzjCrW,pool2
3,MS,easy,3,19.4895,1,ntoLpzjCrW,pool2
3,MS,medium,4,27.9102,0.8,ntoLpzjCrW,pool2
3,MS,hard,5,54.9646,0.7142857142857143,ntoLpzjCrW,pool2
4,MS,easy,2,20.7698,0.6666666666666666,ntoLpzjCrW,pool2
4,MS,medium,3,33.4096,0.6,ntoLpzjCrW,pool2
4,MS,hard,6,57.397,0.8571428571428571,ntoLpzjCrW,pool2
5,MS,easy,3,34.3921,1,ntoLpzjCrW,pool2
5,MS,medium,4,53.2866,0.8,ntoLpzjCrW,pool2
5,MS,hard,5,46.9167,0.7142857142857143,ntoLpzjCrW,pool2
6,MS,easy,3,29.2928,1,ntoLpzjCrW,pool2
6,MS,medium,2,20.3783,0.4,ntoLpzjCrW,pool2
6,MS,hard,5,44.0429,0.7142857142857143,ntoLpzjCrW,pool2
7,MS,easy,3,33.6264,1,ntoLpzjCrW,pool2
7,MS,medium,3,41.8929,0.6,ntoLpzjCrW,pool2
7,MS,hard,4,38.5395,0.5714285714285714,ntoLpzjCrW,pool2
8,MS,easy,3,23.1435,1,ntoLpzjCrW,pool2
8,MS,medium,3,46.9123,0.6,ntoLpzjCrW,pool2
8,MS,hard,5,53.2231,0.7142857142857143,ntoLpzjCrW,pool2
9,MS,easy,3,23.3424,1,ntoLpzjCrW,pool2
9,MS,medium,4,39.8518,0.8,ntoLpzjCrW,pool2
9,MS,hard,5,45.1554,0.7142857142857143,ntoLpzjCrW,pool2
10,MS,easy,3,20.0292,1,ntoLpzjCrW,pool2
10,MS,medium,4,46.5668,0.8,ntoLpzjCrW,pool2
10,MS,hard,4,41.4322,0.5714285714285714,ntoLpzjCrW,pool2
11,MS,easy,3,26.7266,1,ntoLpzjCrW,pool2
11,MS,medium,4,41.5343,0.8,ntoLpzjCrW,pool2
11,MS,hard,4,46.1324,0.5714285714285714,ntoLpzjCrW,pool2
12,MS,easy,3,21.2225,1,ntoLpzjCrW,pool2
12,MS,medium,3,55.8063,0.6,ntoLpzjCrW,pool2
12,MS,hard,4,54.3984,0.5714285714285714,ntoLpzjCrW,pool2
13,MS,easy,3,18.8619,1,ntoLpzjCrW,pool2
13,MS,medium,4,42.9236,0.8,ntoLpzjCrW,pool2
13,MS,hard,5,184.9517,0.7142857142857143,ntoLpzjCrW,pool2
14,MS,easy,3,27.3774,1,ntoLpzjCrW,pool2
14,MS,medium,4,37.4411,0.8,ntoLpzjCrW,pool2
14,MS,hard,5,46.0739,0.7142857142857143,ntoLpzjCrW,pool2
15,MS,easy,3,27.1105,1,ntoLpzjCrW,pool2
15,MS,medium,4,40.5241,0.8,ntoLpzjCrW,pool2
15,MS,hard,6,75.749,0.8571428571428571,ntoLpzjCrW,pool2
16,MS,easy,3,33.6276,1,ntoLpzjCrW,pool2
16,MS,medium,4,44.7813,0.8,ntoLpzjCrW,pool2
16,MS,hard,5,43.5338,0.7142857142857143,ntoLpzjCrW,pool2
1,MS,easy,3,14.2641,1,12zOSfawTO,pool2
1,MS,medium,3,30.248,0.6,12zOSfawTO,pool2
1,MS,hard,3,18.7367,0.42857142857142855,12zOSfawTO,pool2
2,MS,easy,3,11.9817,1,12zOSfawTO,pool2
2,MS,medium,3,28.4354,0.6,12zOSfawTO,pool2
2,MS,hard,2,29.0686,0.2857142857142857,12zOSfawTO,pool2
3,MS,easy,3,9.9295,1,12zOSfawTO,pool2
3,MS,medium,3,42.4521,0.6,12zOSfawTO,pool2
3,MS,hard,6,22.157,0.8571428571428571,12zOSfawTO,pool2
4,MS,easy,3,8.9364,1,12zOSfawTO,pool2
4,MS,medium,5,18.8008,1,12zOSfawTO,pool2
4,MS,hard,5,25.9523,0.7142857142857143,12zOSfawTO,pool2
5,MS,easy,3,11.5704,1,12zOSfawTO,pool2
5,MS,medium,5,21.9117,1,12zOSfawTO,pool2
5,MS,hard,3,12.1492,0.42857142857142855,12zOSfawTO,pool2
6,MS,easy,2,9.6458,0.6666666666666666,12zOSfawTO,pool2
6,MS,medium,5,17.4532,1,12zOSfawTO,pool2
6,MS,hard,2,27.8402,0.2857142857142857,12zOSfawTO,pool2
7,MS,easy,2,15.0315,0.6666666666666666,12zOSfawTO,pool2
7,MS,medium,5,22.7776,1,12zOSfawTO,pool2
7,MS,hard,3,17.3508,0.42857142857142855,12zOSfawTO,pool2
8,MS,easy,3,16.6151,1,12zOSfawTO,pool2
8,MS,medium,5,25.1526,1,12zOSfawTO,pool2
8,MS,hard,2,11.6432,0.2857142857142857,12zOSfawTO,pool2
9,MS,easy,3,19.5173,1,12zOSfawTO,pool2
9,MS,medium,5,24.2052,1,12zOSfawTO,pool2
9,MS,hard,5,20.8459,0.7142857142857143,12zOSfawTO,pool2
10,MS,easy,3,12.7103,1,12zOSfawTO,pool2
10,MS,medium,5,20.4181,1,12zOSfawTO,pool2
10,MS,hard,4,17.5617,0.5714285714285714,12zOSfawTO,pool2
11,MS,easy,3,12.8698,1,12zOSfawTO,pool2
11,MS,medium,5,30.2183,1,12zOSfawTO,pool2
11,MS,hard,4,18.7037,0.5714285714285714,12zOSfawTO,pool2
12,MS,easy,2,11.463,0.6666666666666666,12zOSfawTO,pool2
12,MS,medium,4,23.6274,0.8,12zOSfawTO,pool2
12,MS,hard,6,23.2241,0.8571428571428571,12zOSfawTO,pool2
13,MS,easy,3,13.5769,1,12zOSfawTO,pool2
13,MS,medium,4,18.1256,0.8,12zOSfawTO,pool2
13,MS,hard,2,24.6268,0.2857142857142857,12zOSfawTO,pool2
14,MS,easy,3,13.2236,1,12zOSfawTO,pool2
14,MS,medium,4,44.3886,0.8,12zOSfawTO,pool2
14,MS,hard,4,26.1387,0.5714285714285714,12zOSfawTO,pool2
15,MS,easy,3,14.0219,1,12zOSfawTO,pool2
15,MS,medium,4,26.2197,0.8,12zOSfawTO,pool2
15,MS,hard,5,21.8013,0.7142857142857143,12zOSfawTO,pool2
16,MS,easy,3,13.3945,1,12zOSfawTO,pool2
16,MS,medium,4,19.8381,0.8,12zOSfawTO,pool2
16,MS,hard,6,24.961,0.8571428571428571,12zOSfawTO,pool2
1,MS,easy,3,12.4987,1,DVCsNitb7p,pool2
1,MS,medium,4,22.8486,0.8,DVCsNitb7p,pool2
1,MS,hard,7,44.4986,1,DVCsNitb7p,pool2
2,MS,easy,3,23.5669,1,DVCsNitb7p,pool2
2,MS,medium,3,23.2001,0.6,DVCsNitb7p,pool2
2,MS,hard,5,43.6324,0.7142857142857143,DVCsNitb7p,pool2
3,MS,easy,2,11.2196,0.6666666666666666,DVCsNitb7p,pool2
3,MS,medium,2,19.0997,0.4,DVCsNitb7p,pool2
3,MS,hard,6,42.933,0.8571428571428571,DVCsNitb7p,pool2
4,MS,easy,3,13.5663,1,DVCsNitb7p,pool2
4,MS,medium,2,13.8164,0.4,DVCsNitb7p,pool2
4,MS,hard,7,33.1638,1,DVCsNitb7p,pool2
5,MS,easy,3,10.4498,1,DVCsNitb7p,pool2
5,MS,medium,1,10.0165,0.2,DVCsNitb7p,pool2
5,MS,hard,1,16.6003,0.14285714285714285,DVCsNitb7p,pool2
6,MS,easy,3,12.8665,1,DVCsNitb7p,pool2
6,MS,medium,5,55.1663,1,DVCsNitb7p,pool2
6,MS,hard,6,29.5659,0.8571428571428571,DVCsNitb7p,pool2
7,MS,easy,2,12.583,0.6666666666666666,DVCsNitb7p,pool2
7,MS,medium,5,35.4994,1,DVCsNitb7p,pool2
7,MS,hard,5,34.5,0.7142857142857143,DVCsNitb7p,pool2
8,MS,easy,2,11.6332,0.6666666666666666,DVCsNitb7p,pool2
8,MS,medium,5,41.5164,1,DVCsNitb7p,pool2
8,MS,hard,6,37.7991,0.8571428571428571,DVCsNitb7p,pool2
9,MS,easy,2,10.1163,0.6666666666666666,DVCsNitb7p,pool2
9,MS,medium,4,48.37,0.8,DVCsNitb7p,pool2
9,MS,hard,7,30.8663,1,DVCsNitb7p,pool2
10,MS,easy,3,13.3162,1,DVCsNitb7p,pool2
10,MS,medium,2,14.8159,0.4,DVCsNitb7p,pool2
10,MS,hard,4,29.4826,0.5714285714285714,DVCsNitb7p,pool2
11,MS,easy,2,14.5033,0.6666666666666666,DVCsNitb7p,pool2
11,MS,medium,1,14.4843,0.2,DVCsNitb7p,pool2
11,MS,hard,5,24.0327,0.7142857142857143,DVCsNitb7p,pool2
12,MS,easy,1,10.97,0.3333333333333333,DVCsNitb7p,pool2
12,MS,medium,1,11.7003,0.2,DVCsNitb7p,pool2
12,MS,hard,5,44.4495,0.7142857142857143,DVCsNitb7p,pool2
13,MS,easy,3,11.1832,1,DVCsNitb7p,pool2
13,MS,medium,5,42.1672,1,DVCsNitb7p,pool2
13,MS,hard,6,32.3662,0.8571428571428571,DVCsNitb7p,pool2
14,MS,easy,2,9.8826,0.6666666666666666,DVCsNitb7p,pool2
14,MS,medium,5,29.8335,1,DVCsNitb7p,pool2
14,MS,hard,4,25.2998,0.5714285714285714,DVCsNitb7p,pool2
15,MS,easy,3,9.7163,1,DVCsNitb7p,pool2
15,MS,medium,4,31.7007,0.8,DVCsNitb7p,pool2
15,MS,hard,7,31.8161,1,DVCsNitb7p,pool2
16,MS,easy,2,21.6198,0.6666666666666666,DVCsNitb7p,pool2
16,MS,medium,5,25.4331,1,DVCsNitb7p,pool2
16,MS,hard,7,45.2834,1,DVCsNitb7p,pool2
1,MS,easy,3,6.8676,1,sPXXgeOo7t,pool2
1,MS,medium,5,15.8226,1,sPXXgeOo7t,pool2
1,MS,hard,7,24.899,1,sPXXgeOo7t,pool2
2,MS,easy,3,10.6285,1,sPXXgeOo7t,pool2
2,MS,medium,5,12.9863,1,sPXXgeOo7t,pool2
2,MS,hard,7,25.239,1,sPXXgeOo7t,pool2
3,MS,easy,3,6.4808,1,sPXXgeOo7t,pool2
3,MS,medium,5,18.0185,1,sPXXgeOo7t,pool2
3,MS,hard,6,35.5099,0.8571428571428571,sPXXgeOo7t,pool2
4,MS,easy,3,6.4086,1,sPXXgeOo7t,pool2
4,MS,medium,5,17.1392,1,sPXXgeOo7t,pool2
4,MS,hard,7,98.471,1,sPXXgeOo7t,pool2
5,MS,easy,3,6.4566,1,sPXXgeOo7t,pool2
5,MS,medium,5,19.65,1,sPXXgeOo7t,pool2
5,MS,hard,7,21.9651,1,sPXXgeOo7t,pool2
6,MS,easy,2,8.1179,0.6666666666666666,sPXXgeOo7t,pool2
6,MS,medium,5,21.2013,1,sPXXgeOo7t,pool2
6,MS,hard,6,21.6074,0.8571428571428571,sPXXgeOo7t,pool2
7,MS,easy,3,7.4631,1,sPXXgeOo7t,pool2
7,MS,medium,4,19.6366,0.8,sPXXgeOo7t,pool2
7,MS,hard,7,22.5297,1,sPXXgeOo7t,pool2
8,MS,easy,3,7.0206,1,sPXXgeOo7t,pool2
8,MS,medium,5,16.721,1,sPXXgeOo7t,pool2
8,MS,hard,7,20.213,1,sPXXgeOo7t,pool2
9,MS,easy,3,6.9841,1,sPXXgeOo7t,pool2
9,MS,medium,5,22.517,1,sPXXgeOo7t,pool2
9,MS,hard,7,24.6079,1,sPXXgeOo7t,pool2
10,MS,easy,3,6.875,1,sPXXgeOo7t,pool2
10,MS,medium,5,19.4067,1,sPXXgeOo7t,pool2
10,MS,hard,6,19.8007,0.8571428571428571,sPXXgeOo7t,pool2
11,MS,easy,3,7.8027,1,sPXXgeOo7t,pool2
11,MS,medium,5,116.4957,1,sPXXgeOo7t,pool2
11,MS,hard,6,19.4066,0.8571428571428571,sPXXgeOo7t,pool2
12,MS,easy,2,11.8647,0.6666666666666666,sPXXgeOo7t,pool2
12,MS,medium,5,20.5284,1,sPXXgeOo7t,pool2
12,MS,hard,7,22.3722,1,sPXXgeOo7t,pool2
13,MS,easy,2,6.869,0.6666666666666666,sPXXgeOo7t,pool2
13,MS,medium,5,17.6667,1,sPXXgeOo7t,pool2
13,MS,hard,5,33.5989,0.7142857142857143,sPXXgeOo7t,pool2
14,MS,easy,3,11.1674,1,sPXXgeOo7t,pool2
14,MS,medium,5,20.3218,1,sPXXgeOo7t,pool2
14,MS,hard,7,16.9568,1,sPXXgeOo7t,pool2
15,MS,easy,3,7.0381,1,sPXXgeOo7t,pool2
15,MS,medium,4,17.5025,0.8,sPXXgeOo7t,pool2
15,MS,hard,7,21.3053,1,sPXXgeOo7t,pool2
16,MS,easy,3,13.7138,1,sPXXgeOo7t,pool2
16,MS,medium,5,18.3761,1,sPXXgeOo7t,pool2
16,MS,hard,7,19.4491,1,sPXXgeOo7t,pool2
1,MS,easy,3,8.7759,1,ujNKR4re1M,pool2
1,MS,medium,5,13.0298,1,ujNKR4re1M,pool2
1,MS,hard,6,18.4757,0.8571428571428571,ujNKR4re1M,pool2
2,MS,easy,3,7.5137,1,ujNKR4re1M,pool2
2,MS,medium,3,18.6524,0.6,ujNKR4re1M,pool2
2,MS,hard,1,28.056,0.14285714285714285,ujNKR4re1M,pool2
3,MS,easy,3,6.6531,1,ujNKR4re1M,pool2
3,MS,medium,5,14.0622,1,ujNKR4re1M,pool2
3,MS,hard,2,17.4986,0.2857142857142857,ujNKR4re1M,pool2
4,MS,easy,3,7.4875,1,ujNKR4re1M,pool2
4,MS,medium,5,13.9642,1,ujNKR4re1M,pool2
4,MS,hard,7,27.2436,1,ujNKR4re1M,pool2
5,MS,easy,3,7.5457,1,ujNKR4re1M,pool2
5,MS,medium,5,19.2083,1,ujNKR4re1M,pool2
5,MS,hard,6,20.4947,0.8571428571428571,ujNKR4re1M,pool2
6,MS,easy,3,6.7435,1,ujNKR4re1M,pool2
6,MS,medium,5,15.9921,1,ujNKR4re1M,pool2
6,MS,hard,4,24.7613,0.5714285714285714,ujNKR4re1M,pool2
7,MS,easy,3,7.2265,1,ujNKR4re1M,pool2
7,MS,medium,5,16.119,1,ujNKR4re1M,pool2
7,MS,hard,7,17.7553,1,ujNKR4re1M,pool2
8,MS,easy,3,8.9483,1,ujNKR4re1M,pool2
8,MS,medium,5,13.7069,1,ujNKR4re1M,pool2
8,MS,hard,6,20.2448,0.8571428571428571,ujNKR4re1M,pool2
9,MS,easy,3,8.474,1,ujNKR4re1M,pool2
9,MS,medium,4,11.6116,0.8,ujNKR4re1M,pool2
9,MS,hard,7,23.1244,1,ujNKR4re1M,pool2
10,MS,easy,3,7.1121,1,ujNKR4re1M,pool2
10,MS,medium,5,16.0419,1,ujNKR4re1M,pool2
10,MS,hard,6,20.9974,0.8571428571428571,ujNKR4re1M,pool2
11,MS,easy,3,6.6551,1,ujNKR4re1M,pool2
11,MS,medium,5,12.5538,1,ujNKR4re1M,pool2
11,MS,hard,7,18.4004,1,ujNKR4re1M,pool2
12,MS,easy,3,6.8763,1,ujNKR4re1M,pool2
12,MS,medium,4,9.0464,0.8,ujNKR4re1M,pool2
12,MS,hard,7,19.8829,1,ujNKR4re1M,pool2
13,MS,easy,3,7.731,1,ujNKR4re1M,pool2
13,MS,medium,5,11.3342,1,ujNKR4re1M,pool2
13,MS,hard,5,21.544,0.7142857142857143,ujNKR4re1M,pool2
14,MS,easy,2,7.6836,0.6666666666666666,ujNKR4re1M,pool2
14,MS,medium,4,9.9866,0.8,ujNKR4re1M,pool2
14,MS,hard,5,18.6071,0.7142857142857143,ujNKR4re1M,pool2
15,MS,easy,3,8.112,1,ujNKR4re1M,pool2
15,MS,medium,3,10.9522,0.6,ujNKR4re1M,pool2
15,MS,hard,7,20.1544,1,ujNKR4re1M,pool2
16,MS,easy,3,5.794,1,ujNKR4re1M,pool2
16,MS,medium,4,9.4439,0.8,ujNKR4re1M,pool2
16,MS,hard,7,19.2069,1,ujNKR4re1M,pool2
1,MS,easy,3,16.2972,1,8EBFmIUfAy,pool2
1,MS,medium,4,32.8118,0.8,8EBFmIUfAy,pool2
1,MS,hard,4,28.175,0.5714285714285714,8EBFmIUfAy,pool2
2,MS,easy,3,17.1289,1,8EBFmIUfAy,pool2
2,MS,medium,4,30.8882,0.8,8EBFmIUfAy,pool2
2,MS,hard,5,33.8836,0.7142857142857143,8EBFmIUfAy,pool2
3,MS,easy,3,10.1165,1,8EBFmIUfAy,pool2
3,MS,medium,4,27.3308,0.8,8EBFmIUfAy,pool2
3,MS,hard,7,33.9098,1,8EBFmIUfAy,pool2
4,MS,easy,3,12.2881,1,8EBFmIUfAy,pool2
4,MS,medium,4,20.4594,0.8,8EBFmIUfAy,pool2
4,MS,hard,5,67.5526,0.7142857142857143,8EBFmIUfAy,pool2
5,MS,easy,3,17.9855,1,8EBFmIUfAy,pool2
5,MS,medium,4,21.5906,0.8,8EBFmIUfAy,pool2
5,MS,hard,4,23.7697,0.5714285714285714,8EBFmIUfAy,pool2
6,MS,easy,3,12.5173,1,8EBFmIUfAy,pool2
6,MS,medium,4,31.2884,0.8,8EBFmIUfAy,pool2
6,MS,hard,5,21.9389,0.7142857142857143,8EBFmIUfAy,pool2
7,MS,easy,3,10.4228,1,8EBFmIUfAy,pool2
7,MS,medium,4,30.5564,0.8,8EBFmIUfAy,pool2
7,MS,hard,4,35.6466,0.5714285714285714,8EBFmIUfAy,pool2
8,MS,easy,3,13.7915,1,8EBFmIUfAy,pool2
8,MS,medium,3,42.9551,0.6,8EBFmIUfAy,pool2
8,MS,hard,6,26.2503,0.8571428571428571,8EBFmIUfAy,pool2
9,MS,easy,2,14.202,0.6666666666666666,8EBFmIUfAy,pool2
9,MS,medium,3,29.4289,0.6,8EBFmIUfAy,pool2
9,MS,hard,5,29.2071,0.7142857142857143,8EBFmIUfAy,pool2
10,MS,easy,3,18.6032,1,8EBFmIUfAy,pool2
10,MS,medium,4,25.604,0.8,8EBFmIUfAy,pool2
10,MS,hard,5,30.9883,0.7142857142857143,8EBFmIUfAy,pool2
11,MS,easy,3,12.082,1,8EBFmIUfAy,pool2
11,MS,medium,3,80.36,0.6,8EBFmIUfAy,pool2
11,MS,hard,3,24.2567,0.42857142857142855,8EBFmIUfAy,pool2
12,MS,easy,3,12.5421,1,8EBFmIUfAy,pool2
12,MS,medium,5,36.7839,1,8EBFmIUfAy,pool2
12,MS,hard,5,21.6669,0.7142857142857143,8EBFmIUfAy,pool2
13,MS,easy,3,13.1196,1,8EBFmIUfAy,pool2
13,MS,medium,5,30.8882,1,8EBFmIUfAy,pool2
13,MS,hard,4,20.7078,0.5714285714285714,8EBFmIUfAy,pool2
14,MS,easy,3,9.6003,1,8EBFmIUfAy,pool2
14,MS,medium,4,31.4374,0.8,8EBFmIUfAy,pool2
14,MS,hard,4,29.055,0.5714285714285714,8EBFmIUfAy,pool2
15,MS,easy,2,13.8187,0.6666666666666666,8EBFmIUfAy,pool2
15,MS,medium,4,41.1112,0.8,8EBFmIUfAy,pool2
15,MS,hard,5,32.7281,0.7142857142857143,8EBFmIUfAy,pool2
16,MS,easy,3,12.1758,1,8EBFmIUfAy,pool2
16,MS,medium,5,49.0237,1,8EBFmIUfAy,pool2
16,MS,hard,5,30.6563,0.7142857142857143,8EBFmIUfAy,pool2
1,MS,easy,1,4.1779,0.3333333333333333,aqEAPJJI8e,pool34
1,MS,medium,4,17.3024,0.8,aqEAPJJI8e,pool34
1,MS,hard,7,28.274,1,aqEAPJJI8e,pool34
2,MS,easy,1,3.7688,0.3333333333333333,aqEAPJJI8e,pool34
2,MS,medium,5,18.274,1,aqEAPJJI8e,pool34
2,MS,hard,7,25.4945,1,aqEAPJJI8e,pool34
3,MS,easy,1,5.0362,0.3333333333333333,aqEAPJJI8e,pool34
3,MS,medium,5,16.7911,1,aqEAPJJI8e,pool34
3,MS,hard,6,26.0607,0.8571428571428571,aqEAPJJI8e,pool34
4,MS,easy,1,11.7051,0.3333333333333333,aqEAPJJI8e,pool34
4,MS,medium,5,17.8239,1,aqEAPJJI8e,pool34
4,MS,hard,6,24.3097,0.8571428571428571,aqEAPJJI8e,pool34
5,MS,easy,1,3.0184,0.3333333333333333,aqEAPJJI8e,pool34
5,MS,medium,5,22.8599,1,aqEAPJJI8e,pool34
5,MS,hard,7,24.9111,1,aqEAPJJI8e,pool34
6,MS,easy,1,3.4176,0.3333333333333333,aqEAPJJI8e,pool34
6,MS,medium,5,17.7276,1,aqEAPJJI8e,pool34
6,MS,hard,7,25.5946,1,aqEAPJJI8e,pool34
7,MS,easy,1,6.5369,0.3333333333333333,aqEAPJJI8e,pool34
7,MS,medium,5,17.7616,1,aqEAPJJI8e,pool34
7,MS,hard,6,24.7974,0.8571428571428571,aqEAPJJI8e,pool34
8,MS,easy,1,8.3192,0.3333333333333333,aqEAPJJI8e,pool34
8,MS,medium,4,15.9051,0.8,aqEAPJJI8e,pool34
8,MS,hard,6,23.5598,0.8571428571428571,aqEAPJJI8e,pool34
9,MS,easy,2,11.5045,0.6666666666666666,aqEAPJJI8e,pool34
9,MS,medium,5,17.0412,1,aqEAPJJI8e,pool34
9,MS,hard,7,24.5079,1,aqEAPJJI8e,pool34
10,MS,easy,0,15.5402,0,aqEAPJJI8e,pool34
10,MS,medium,5,20.0591,1,aqEAPJJI8e,pool34
10,MS,hard,7,25.2612,1,aqEAPJJI8e,pool34
11,MS,easy,1,10.6706,0.3333333333333333,aqEAPJJI8e,pool34
11,MS,medium,5,17.1279,1,aqEAPJJI8e,pool34
11,MS,hard,7,26.8449,1,aqEAPJJI8e,pool34
12,MS,easy,0,7.4033,0,aqEAPJJI8e,pool34
12,MS,medium,4,28.6968,0.8,aqEAPJJI8e,pool34
12,MS,hard,6,24.5149,0.8571428571428571,aqEAPJJI8e,pool34
13,MS,easy,0,10.388,0,aqEAPJJI8e,pool34
13,MS,medium,5,18.2254,1,aqEAPJJI8e,pool34
13,MS,hard,7,32.2269,1,aqEAPJJI8e,pool34
14,MS,easy,1,18.0085,0.3333333333333333,aqEAPJJI8e,pool34
14,MS,medium,4,15.4752,0.8,aqEAPJJI8e,pool34
14,MS,hard,7,33.2616,1,aqEAPJJI8e,pool34
15,MS,easy,1,12.0549,0.3333333333333333,aqEAPJJI8e,pool34
15,MS,medium,5,16.0599,1,aqEAPJJI8e,pool34
15,MS,hard,7,22.3765,1,aqEAPJJI8e,pool34
16,MS,easy,3,11.3048,1,aqEAPJJI8e,pool34
16,MS,medium,3,17.2575,0.6,aqEAPJJI8e,pool34
16,MS,hard,7,24.8595,1,aqEAPJJI8e,pool34
1,MS,easy,3,26.3414,1,rh40WUcVcA,pool34
1,MS,medium,3,57.9057,0.6,rh40WUcVcA,pool34
1,MS,hard,6,100.1625,0.8571428571428571,rh40WUcVcA,pool34
2,MS,easy,1,24.0617,0.3333333333333333,rh40WUcVcA,pool34
2,MS,medium,2,38.8743,0.4,rh40WUcVcA,pool34
2,MS,hard,7,56.1843,1,rh40WUcVcA,pool34
3,MS,easy,2,20.0595,0.6666666666666666,rh40WUcVcA,pool34
3,MS,medium,3,55.3748,0.6,rh40WUcVcA,pool34
3,MS,hard,6,58.2506,0.8571428571428571,rh40WUcVcA,pool34
4,MS,easy,2,20.6406,0.6666666666666666,rh40WUcVcA,pool34
4,MS,medium,0,77.658,0,rh40WUcVcA,pool34
4,MS,hard,7,54.7563,1,rh40WUcVcA,pool34
5,MS,easy,3,17.771,1,rh40WUcVcA,pool34
5,MS,medium,5,63.8726,1,rh40WUcVcA,pool34
5,MS,hard,5,61.8934,0.7142857142857143,rh40WUcVcA,pool34
6,MS,easy,1,153.481,0.3333333333333333,rh40WUcVcA,pool34
6,MS,medium,5,46.1026,1,rh40WUcVcA,pool34
6,MS,hard,7,49.6494,1,rh40WUcVcA,pool34
7,MS,easy,3,18.9605,1,rh40WUcVcA,pool34
7,MS,medium,5,46.0467,1,rh40WUcVcA,pool34
7,MS,hard,6,52.8857,0.8571428571428571,rh40WUcVcA,pool34
8,MS,easy,3,17.751,1,rh40WUcVcA,pool34
8,MS,medium,4,36.5136,0.8,rh40WUcVcA,pool34
8,MS,hard,6,66.1307,0.8571428571428571,rh40WUcVcA,pool34
9,MS,easy,2,20.4736,0.6666666666666666,rh40WUcVcA,pool34
9,MS,medium,5,33.1064,1,rh40WUcVcA,pool34
9,MS,hard,5,61.7497,0.7142857142857143,rh40WUcVcA,pool34
10,MS,easy,2,17.456,0.6666666666666666,rh40WUcVcA,pool34
10,MS,medium,5,39.6198,1,rh40WUcVcA,pool34
10,MS,hard,6,47.241,0.8571428571428571,rh40WUcVcA,pool34
11,MS,easy,3,18.6869,1,rh40WUcVcA,pool34
11,MS,medium,5,38.978,1,rh40WUcVcA,pool34
11,MS,hard,5,57.4112,0.7142857142857143,rh40WUcVcA,pool34
12,MS,easy,3,31.2028,1,rh40WUcVcA,pool34
12,MS,medium,5,37.6492,1,rh40WUcVcA,pool34
12,MS,hard,6,68.3326,0.8571428571428571,rh40WUcVcA,pool34
13,MS,easy,2,17.0323,0.6666666666666666,rh40WUcVcA,pool34
13,MS,medium,5,36.21,1,rh40WUcVcA,pool34
13,MS,hard,7,55.5784,1,rh40WUcVcA,pool34
14,MS,easy,2,18.3502,0.6666666666666666,rh40WUcVcA,pool34
14,MS,medium,5,35.545,1,rh40WUcVcA,pool34
14,MS,hard,6,61.7944,0.8571428571428571,rh40WUcVcA,pool34
15,MS,easy,3,15.8075,1,rh40WUcVcA,pool34
15,MS,medium,5,31.2979,1,rh40WUcVcA,pool34
15,MS,hard,5,46.4711,0.7142857142857143,rh40WUcVcA,pool34
16,MS,easy,3,19.084,1,rh40WUcVcA,pool34
16,MS,medium,4,47.7939,0.8,rh40WUcVcA,pool34
16,MS,hard,7,48.0431,1,rh40WUcVcA,pool34
1,MS,easy,3,5.7283,1,ky7vtw0gdz,pool34
1,MS,medium,3,8.5884,0.6,ky7vtw0gdz,pool34
1,MS,hard,4,10.2554,0.5714285714285714,ky7vtw0gdz,pool34
2,MS,easy,3,6.6154,1,ky7vtw0gdz,pool34
2,MS,medium,3,9.5761,0.6,ky7vtw0gdz,pool34
2,MS,hard,4,10.5633,0.5714285714285714,ky7vtw0gdz,pool34
3,MS,easy,3,7.8558,1,ky7vtw0gdz,pool34
3,MS,medium,3,13.3242,0.6,ky7vtw0gdz,pool34
3,MS,hard,2,6.3659,0.2857142857142857,ky7vtw0gdz,pool34
4,MS,easy,3,6.8021,1,ky7vtw0gdz,pool34
4,MS,medium,5,19.086,1,ky7vtw0gdz,pool34
4,MS,hard,4,7.9895,0.5714285714285714,ky7vtw0gdz,pool34
5,MS,easy,3,8.6027,1,ky7vtw0gdz,pool34
5,MS,medium,4,21.4201,0.8,ky7vtw0gdz,pool34
5,MS,hard,2,6.9314,0.2857142857142857,ky7vtw0gdz,pool34
6,MS,easy,3,8.9227,1,ky7vtw0gdz,pool34
6,MS,medium,4,19.3663,0.8,ky7vtw0gdz,pool34
6,MS,hard,4,8.083,0.5714285714285714,ky7vtw0gdz,pool34
7,MS,easy,3,7.8692,1,ky7vtw0gdz,pool34
7,MS,medium,4,18.5926,0.8,ky7vtw0gdz,pool34
7,MS,hard,0,2.5208,0,ky7vtw0gdz,pool34
8,MS,easy,3,7.3624,1,ky7vtw0gdz,pool34
8,MS,medium,2,8.4825,0.4,ky7vtw0gdz,pool34
8,MS,hard,4,12.8001,0.5714285714285714,ky7vtw0gdz,pool34
9,MS,easy,2,6.362,0.6666666666666666,ky7vtw0gdz,pool34
9,MS,medium,4,41.6268,0.8,ky7vtw0gdz,pool34
9,MS,hard,4,7.6692,0.5714285714285714,ky7vtw0gdz,pool34
10,MS,easy,3,6.9755,1,ky7vtw0gdz,pool34
10,MS,medium,5,22.0737,1,ky7vtw0gdz,pool34
10,MS,hard,3,9.1495,0.42857142857142855,ky7vtw0gdz,pool34
11,MS,easy,3,6.9489,1,ky7vtw0gdz,pool34
11,MS,medium,5,19.6329,1,ky7vtw0gdz,pool34
11,MS,hard,3,6.8153,0.42857142857142855,ky7vtw0gdz,pool34
12,MS,easy,3,6.5622,1,ky7vtw0gdz,pool34
12,MS,medium,4,22.8208,0.8,ky7vtw0gdz,pool34
12,MS,hard,2,4.2454,0.2857142857142857,ky7vtw0gdz,pool34
13,MS,easy,3,5.8685,1,ky7vtw0gdz,pool34
13,MS,medium,4,20.4864,0.8,ky7vtw0gdz,pool34
13,MS,hard,3,7.9133,0.42857142857142855,ky7vtw0gdz,pool34
14,MS,easy,3,6.6286,1,ky7vtw0gdz,pool34
14,MS,medium,4,17.7654,0.8,ky7vtw0gdz,pool34
14,MS,hard,2,4.4281,0.2857142857142857,ky7vtw0gdz,pool34
15,MS,easy,3,6.7487,1,ky7vtw0gdz,pool34
15,MS,medium,4,24.0611,0.8,ky7vtw0gdz,pool34
15,MS,hard,3,6.5178,0.42857142857142855,ky7vtw0gdz,pool34
16,MS,easy,3,6.322,1,ky7vtw0gdz,pool34
16,MS,medium,4,23.0474,0.8,ky7vtw0gdz,pool34
16,MS,hard,2,4.3653,0.2857142857142857,ky7vtw0gdz,pool34
1,MS,easy,3,13.7268,1,zvDM8Go5Bd,pool34
1,MS,medium,5,33.7199,1,zvDM8Go5Bd,pool34
1,MS,hard,7,39.7913,1,zvDM8Go5Bd,pool34
2,MS,easy,3,15.7343,1,zvDM8Go5Bd,pool34
2,MS,medium,5,29.3435,1,zvDM8Go5Bd,pool34
2,MS,hard,3,31.8337,0.42857142857142855,zvDM8Go5Bd,pool34
3,MS,easy,3,14.4465,1,zvDM8Go5Bd,pool34
3,MS,medium,4,57.7698,0.8,zvDM8Go5Bd,pool34
3,MS,hard,4,41.2119,0.5714285714285714,zvDM8Go5Bd,pool34
4,MS,easy,3,16.8785,1,zvDM8Go5Bd,pool34
4,MS,medium,5,24.6179,1,zvDM8Go5Bd,pool34
4,MS,hard,6,31.5748,0.8571428571428571,zvDM8Go5Bd,pool34
5,MS,easy,3,14.1968,1,zvDM8Go5Bd,pool34
5,MS,medium,5,22.2438,1,zvDM8Go5Bd,pool34
5,MS,hard,3,29.7617,0.42857142857142855,zvDM8Go5Bd,pool34
6,MS,easy,3,13.4646,1,zvDM8Go5Bd,pool34
6,MS,medium,5,25.2462,1,zvDM8Go5Bd,pool34
6,MS,hard,3,27.1058,0.42857142857142855,zvDM8Go5Bd,pool34
7,MS,easy,3,12.3614,1,zvDM8Go5Bd,pool34
7,MS,medium,5,26.8635,1,zvDM8Go5Bd,pool34
7,MS,hard,6,31.9622,0.8571428571428571,zvDM8Go5Bd,pool34
8,MS,easy,3,13.4279,1,zvDM8Go5Bd,pool34
8,MS,medium,5,45.1259,1,zvDM8Go5Bd,pool34
8,MS,hard,4,32.3999,0.5714285714285714,zvDM8Go5Bd,pool34
9,MS,easy,3,13.5286,1,zvDM8Go5Bd,pool34
9,MS,medium,4,27.7196,0.8,zvDM8Go5Bd,pool34
9,MS,hard,4,26.9679,0.5714285714285714,zvDM8Go5Bd,pool34
10,MS,easy,3,19.9977,1,zvDM8Go5Bd,pool34
10,MS,medium,5,24.199,1,zvDM8Go5Bd,pool34
10,MS,hard,3,24.4957,0.42857142857142855,zvDM8Go5Bd,pool34
11,MS,easy,3,14.6448,1,zvDM8Go5Bd,pool34
11,MS,medium,5,35.6756,1,zvDM8Go5Bd,pool34
11,MS,hard,4,22.3204,0.5714285714285714,zvDM8Go5Bd,pool34
12,MS,easy,3,12.7354,1,zvDM8Go5Bd,pool34
12,MS,medium,5,26.1304,1,zvDM8Go5Bd,pool34
12,MS,hard,3,20.7195,0.42857142857142855,zvDM8Go5Bd,pool34
13,MS,easy,3,18.5871,1,zvDM8Go5Bd,pool34
13,MS,medium,5,24.4847,1,zvDM8Go5Bd,pool34
13,MS,hard,5,28.3417,0.7142857142857143,zvDM8Go5Bd,pool34
14,MS,easy,3,13.5924,1,zvDM8Go5Bd,pool34
14,MS,medium,4,26.0207,0.8,zvDM8Go5Bd,pool34
14,MS,hard,4,26.6946,0.5714285714285714,zvDM8Go5Bd,pool34
15,MS,easy,3,14.423400000000001,1,zvDM8Go5Bd,pool34
15,MS,medium,5,24.8057,1,zvDM8Go5Bd,pool34
15,MS,hard,3,23.8518,0.42857142857142855,zvDM8Go5Bd,pool34
16,MS,easy,3,14.1982,1,zvDM8Go5Bd,pool34
16,MS,medium,5,27.856,1,zvDM8Go5Bd,pool34
16,MS,hard,4,27.0822,0.5714285714285714,zvDM8Go5Bd,pool34
1,MS,easy,3,10.082,1,7SltMY2Jba,pool34
1,MS,medium,5,18.309,1,7SltMY2Jba,pool34
1,MS,hard,5,22.618,0.7142857142857143,7SltMY2Jba,pool34
2,MS,easy,3,11.198,1,7SltMY2Jba,pool34
2,MS,medium,5,18.698,1,7SltMY2Jba,pool34
2,MS,hard,7,24.358,1,7SltMY2Jba,pool34
3,MS,easy,3,11.188,1,7SltMY2Jba,pool34
3,MS,medium,5,16.604,1,7SltMY2Jba,pool34
3,MS,hard,5,27.199,0.7142857142857143,7SltMY2Jba,pool34
4,MS,easy,3,11.204,1,7SltMY2Jba,pool34
4,MS,medium,5,23.435,1,7SltMY2Jba,pool34
4,MS,hard,2,12.525,0.2857142857142857,7SltMY2Jba,pool34
5,MS,easy,3,10.704,1,7SltMY2Jba,pool34
5,MS,medium,4,22.754,0.8,7SltMY2Jba,pool34
5,MS,hard,5,20.683,0.7142857142857143,7SltMY2Jba,pool34
6,MS,easy,3,8.671,1,7SltMY2Jba,pool34
6,MS,medium,5,18.414,1,7SltMY2Jba,pool34
6,MS,hard,5,18.191,0.7142857142857143,7SltMY2Jba,pool34
7,MS,easy,3,10.035,1,7SltMY2Jba,pool34
7,MS,medium,5,18.63,1,7SltMY2Jba,pool34
7,MS,hard,5,18.393,0.7142857142857143,7SltMY2Jba,pool34
8,MS,easy,3,9.671,1,7SltMY2Jba,pool34
8,MS,medium,5,16.395,1,7SltMY2Jba,pool34
8,MS,hard,4,14.016,0.5714285714285714,7SltMY2Jba,pool34
9,MS,easy,3,12.416,1,7SltMY2Jba,pool34
9,MS,medium,5,18.512,1,7SltMY2Jba,pool34
9,MS,hard,5,21.528,0.7142857142857143,7SltMY2Jba,pool34
10,MS,easy,3,9.006,1,7SltMY2Jba,pool34
10,MS,medium,5,17.149,1,7SltMY2Jba,pool34
10,MS,hard,6,24.998,0.8571428571428571,7SltMY2Jba,pool34
11,MS,easy,3,8.642,1,7SltMY2Jba,pool34
11,MS,medium,5,15.61,1,7SltMY2Jba,pool34
11,MS,hard,5,23.578,0.7142857142857143,7SltMY2Jba,pool34
12,MS,easy,3,12.866,1,7SltMY2Jba,pool34
12,MS,medium,4,17.94,0.8,7SltMY2Jba,pool34
12,MS,hard,6,17.806,0.8571428571428571,7SltMY2Jba,pool34
13,MS,easy,3,11.204,1,7SltMY2Jba,pool34
13,MS,medium,5,16.859,1,7SltMY2Jba,pool34
13,MS,hard,5,17.538,0.7142857142857143,7SltMY2Jba,pool34
14,MS,easy,3,10.473,1,7SltMY2Jba,pool34
14,MS,medium,3,18.116,0.6,7SltMY2Jba,pool34
14,MS,hard,4,14.528,0.5714285714285714,7SltMY2Jba,pool34
15,MS,easy,3,10.578,1,7SltMY2Jba,pool34
15,MS,medium,5,14.512,1,7SltMY2Jba,pool34
15,MS,hard,6,22.397,0.8571428571428571,7SltMY2Jba,pool34
16,MS,easy,3,9.613,1,7SltMY2Jba,pool34
16,MS,medium,5,16.651,1,7SltMY2Jba,pool34
16,MS,hard,6,18.685,0.8571428571428571,7SltMY2Jba,pool34
1,MS,easy,3,12.999,1,PbOEQpRS9f,pool34
1,MS,medium,5,12.016,1,PbOEQpRS9f,pool34
1,MS,hard,4,22.534,0.5714285714285714,PbOEQpRS9f,pool34
2,MS,easy,3,10.615,1,PbOEQpRS9f,pool34
2,MS,medium,4,21.533,0.8,PbOEQpRS9f,pool34
2,MS,hard,7,28.882,1,PbOEQpRS9f,pool34
3,MS,easy,3,8.499,1,PbOEQpRS9f,pool34
3,MS,medium,5,14.315,1,PbOEQpRS9f,pool34
3,MS,hard,7,29.799,1,PbOEQpRS9f,pool34
4,MS,easy,3,8.314,1,PbOEQpRS9f,pool34
4,MS,medium,5,14.032,1,PbOEQpRS9f,pool34
4,MS,hard,3,17.883,0.42857142857142855,PbOEQpRS9f,pool34
5,MS,easy,3,7.333,1,PbOEQpRS9f,pool34
5,MS,medium,3,17.85,0.6,PbOEQpRS9f,pool34
5,MS,hard,7,30.463,1,PbOEQpRS9f,pool34
6,MS,easy,3,10.382,1,PbOEQpRS9f,pool34
6,MS,medium,5,13.648,1,PbOEQpRS9f,pool34
6,MS,hard,1,19.25,0.14285714285714285,PbOEQpRS9f,pool34
7,MS,easy,3,10.081,1,PbOEQpRS9f,pool34
7,MS,medium,5,17.067,1,PbOEQpRS9f,pool34
7,MS,hard,7,29.649,1,PbOEQpRS9f,pool34
8,MS,easy,3,8.167,1,PbOEQpRS9f,pool34
8,MS,medium,3,15.067,0.6,PbOEQpRS9f,pool34
8,MS,hard,7,21.832,1,PbOEQpRS9f,pool34
9,MS,easy,3,6.415,1,PbOEQpRS9f,pool34
9,MS,medium,4,11.066,0.8,PbOEQpRS9f,pool34
9,MS,hard,6,29.349,0.8571428571428571,PbOEQpRS9f,pool34
10,MS,easy,3,8.215,1,PbOEQpRS9f,pool34
10,MS,medium,5,12.298,1,PbOEQpRS9f,pool34
10,MS,hard,7,28.749,1,PbOEQpRS9f,pool34
11,MS,easy,3,5.865,1,PbOEQpRS9f,pool34
11,MS,medium,4,14.115,0.8,PbOEQpRS9f,pool34
11,MS,hard,7,32.983,1,PbOEQpRS9f,pool34
12,MS,easy,3,6.849,1,PbOEQpRS9f,pool34
12,MS,medium,5,12.999,1,PbOEQpRS9f,pool34
12,MS,hard,7,38.865,1,PbOEQpRS9f,pool34
13,MS,easy,2,10.3,0.6666666666666666,PbOEQpRS9f,pool34
13,MS,medium,5,11.498,1,PbOEQpRS9f,pool34
13,MS,hard,7,36.717,1,PbOEQpRS9f,pool34
14,MS,easy,2,7.199,0.6666666666666666,PbOEQpRS9f,pool34
14,MS,medium,5,12.867,1,PbOEQpRS9f,pool34
14,MS,hard,7,28.835,1,PbOEQpRS9f,pool34
15,MS,easy,3,7.481,1,PbOEQpRS9f,pool34
15,MS,medium,5,12.215,1,PbOEQpRS9f,pool34
15,MS,hard,7,42.45,1,PbOEQpRS9f,pool34
16,MS,easy,2,9.465,0.6666666666666666,PbOEQpRS9f,pool34
16,MS,medium,5,10.301,1,PbOEQpRS9f,pool34
16,MS,hard,0,6.282,0,PbOEQpRS9f,pool34
1,MS,easy,2,16.0273,0.6666666666666666,yTPpr0532t,pool34
1,MS,medium,5,41.854,1,yTPpr0532t,pool34
1,MS,hard,7,28.0842,1,yTPpr0532t,pool34
2,MS,easy,3,19.207,1,yTPpr0532t,pool34
2,MS,medium,5,31.0931,1,yTPpr0532t,pool34
2,MS,hard,7,40.3153,1,yTPpr0532t,pool34
3,MS,easy,3,17.4069,1,yTPpr0532t,pool34
3,MS,medium,5,21.8814,1,yTPpr0532t,pool34
3,MS,hard,7,23.6172,1,yTPpr0532t,pool34
4,MS,easy,2,11.4171,0.6666666666666666,yTPpr0532t,pool34
4,MS,medium,5,20.7759,1,yTPpr0532t,pool34
4,MS,hard,7,32.2333,1,yTPpr0532t,pool34
5,MS,easy,2,10.2836,0.6666666666666666,yTPpr0532t,pool34
5,MS,medium,5,30.0694,1,yTPpr0532t,pool34
5,MS,hard,7,32.0371,1,yTPpr0532t,pool34
6,MS,easy,3,10.5225,1,yTPpr0532t,pool34
6,MS,medium,5,23.8164,1,yTPpr0532t,pool34
6,MS,hard,6,29.3243,0.8571428571428571,yTPpr0532t,pool34
7,MS,easy,3,15.33,1,yTPpr0532t,pool34
7,MS,medium,5,37.11,1,yTPpr0532t,pool34
7,MS,hard,7,32.5996,1,yTPpr0532t,pool34
8,MS,easy,3,19.7035,1,yTPpr0532t,pool34
8,MS,medium,5,22.9465,1,yTPpr0532t,pool34
8,MS,hard,7,27.6778,1,yTPpr0532t,pool34
9,MS,easy,2,18.8017,0.6666666666666666,yTPpr0532t,pool34
9,MS,medium,5,34.7999,1,yTPpr0532t,pool34
9,MS,hard,7,28.2613,1,yTPpr0532t,pool34
10,MS,easy,3,15.0998,1,yTPpr0532t,pool34
10,MS,medium,5,21.6725,1,yTPpr0532t,pool34
10,MS,hard,7,27.7583,1,yTPpr0532t,pool34
11,MS,easy,3,17.0679,1,yTPpr0532t,pool34
11,MS,medium,5,24.4771,1,yTPpr0532t,pool34
11,MS,hard,7,32.599,1,yTPpr0532t,pool34
12,MS,easy,3,14.9974,1,yTPpr0532t,pool34
12,MS,medium,5,49.3962,1,yTPpr0532t,pool34
12,MS,hard,7,23.0444,1,yTPpr0532t,pool34
13,MS,easy,3,11.3328,1,yTPpr0532t,pool34
13,MS,medium,5,30.3304,1,yTPpr0532t,pool34
13,MS,hard,7,43.0875,1,yTPpr0532t,pool34
14,MS,easy,3,87.2651,1,yTPpr0532t,pool34
14,MS,medium,4,17.6733,0.8,yTPpr0532t,pool34
14,MS,hard,7,29.9025,1,yTPpr0532t,pool34
15,MS,easy,3,10.4873,1,yTPpr0532t,pool34
15,MS,medium,5,20.6062,1,yTPpr0532t,pool34
15,MS,hard,7,37.3423,1,yTPpr0532t,pool34
16,MS,easy,3,9.7204,1,yTPpr0532t,pool34
16,MS,medium,4,23.9448,0.8,yTPpr0532t,pool34
16,MS,hard,7,36.3365,1,yTPpr0532t,pool34
1,MS,easy,3,12.3188,1,YlvUbMLU90,pool34
1,MS,medium,5,15.9571,1,YlvUbMLU90,pool34
1,MS,hard,7,48.0971,1,YlvUbMLU90,pool34
2,MS,easy,3,11.1661,1,YlvUbMLU90,pool34
2,MS,medium,5,25.7995,1,YlvUbMLU90,pool34
2,MS,hard,6,45.2305,0.8571428571428571,YlvUbMLU90,pool34
3,MS,easy,3,11.1167,1,YlvUbMLU90,pool34
3,MS,medium,4,27.3662,0.8,YlvUbMLU90,pool34
3,MS,hard,5,37.8411,0.7142857142857143,YlvUbMLU90,pool34
4,MS,easy,3,11.3424,1,YlvUbMLU90,pool34
4,MS,medium,5,17.1993,1,YlvUbMLU90,pool34
4,MS,hard,4,24.6492,0.5714285714285714,YlvUbMLU90,pool34
5,MS,easy,3,9.4326,1,YlvUbMLU90,pool34
5,MS,medium,5,18.5486,1,YlvUbMLU90,pool34
5,MS,hard,5,19.016,0.7142857142857143,YlvUbMLU90,pool34
6,MS,easy,3,9.2996,1,YlvUbMLU90,pool34
6,MS,medium,4,17.3826,0.8,YlvUbMLU90,pool34
6,MS,hard,5,29.6485,0.7142857142857143,YlvUbMLU90,pool34
7,MS,easy,3,11.9163,1,YlvUbMLU90,pool34
7,MS,medium,4,23.349,0.8,YlvUbMLU90,pool34
7,MS,hard,6,24.7582,0.8571428571428571,YlvUbMLU90,pool34
8,MS,easy,3,9.2743,1,YlvUbMLU90,pool34
8,MS,medium,5,14.3668,1,YlvUbMLU90,pool34
8,MS,hard,5,29.1327,0.7142857142857143,YlvUbMLU90,pool34
9,MS,easy,3,10.3006,1,YlvUbMLU90,pool34
9,MS,medium,5,18.1156,1,YlvUbMLU90,pool34
9,MS,hard,6,23.3821,0.8571428571428571,YlvUbMLU90,pool34
10,MS,easy,3,11.2664,1,YlvUbMLU90,pool34
10,MS,medium,5,20.0332,1,YlvUbMLU90,pool34
10,MS,hard,5,33.4488,0.7142857142857143,YlvUbMLU90,pool34
11,MS,easy,3,10.5329,1,YlvUbMLU90,pool34
11,MS,medium,5,16.5997,1,YlvUbMLU90,pool34
11,MS,hard,5,27.7495,0.7142857142857143,YlvUbMLU90,pool34
12,MS,easy,3,12.0491,1,YlvUbMLU90,pool34
12,MS,medium,4,19.4491,0.8,YlvUbMLU90,pool34
12,MS,hard,3,26.0825,0.42857142857142855,YlvUbMLU90,pool34
13,MS,easy,2,8.8825,0.6666666666666666,YlvUbMLU90,pool34
13,MS,medium,4,19.2659,0.8,YlvUbMLU90,pool34
13,MS,hard,5,24.6419,0.7142857142857143,YlvUbMLU90,pool34
14,MS,easy,2,11.1996,0.6666666666666666,YlvUbMLU90,pool34
14,MS,medium,5,15.374,1,YlvUbMLU90,pool34
14,MS,hard,5,22.5417,0.7142857142857143,YlvUbMLU90,pool34
15,MS,easy,3,10.8574,1,YlvUbMLU90,pool34
15,MS,medium,5,19.6093,1,YlvUbMLU90,pool34
15,MS,hard,3,13.8244,0.42857142857142855,YlvUbMLU90,pool34
16,MS,easy,3,13.0997,1,YlvUbMLU90,pool34
16,MS,medium,5,17.3159,1,YlvUbMLU90,pool34
16,MS,hard,4,19.5159,0.5714285714285714,YlvUbMLU90,pool34
1,MS,easy,3,14.944,1,WQyxRdU13t,pool34
1,MS,medium,4,21.801,0.8,WQyxRdU13t,pool34
1,MS,hard,4,48.398,0.5714285714285714,WQyxRdU13t,pool34
2,MS,easy,2,17.083,0.6666666666666666,WQyxRdU13t,pool34
2,MS,medium,4,20.581,0.8,WQyxRdU13t,pool34
2,MS,hard,4,27.015,0.5714285714285714,WQyxRdU13t,pool34
3,MS,easy,3,23.265,1,WQyxRdU13t,pool34
3,MS,medium,4,20.848,0.8,WQyxRdU13t,pool34
3,MS,hard,4,40.032,0.5714285714285714,WQyxRdU13t,pool34
4,MS,easy,3,19.677,1,WQyxRdU13t,pool34
4,MS,medium,3,22.618,0.6,WQyxRdU13t,pool34
4,MS,hard,4,67.149,0.5714285714285714,WQyxRdU13t,pool34
5,MS,easy,3,53.6,1,WQyxRdU13t,pool34
5,MS,medium,4,23.417,0.8,WQyxRdU13t,pool34
5,MS,hard,1,39.848,0.14285714285714285,WQyxRdU13t,pool34
6,MS,easy,3,11.666,1,WQyxRdU13t,pool34
6,MS,medium,4,20.11,0.8,WQyxRdU13t,pool34
6,MS,hard,4,20.932,0.5714285714285714,WQyxRdU13t,pool34
7,MS,easy,3,9.213,1,WQyxRdU13t,pool34
7,MS,medium,3,13.017,0.6,WQyxRdU13t,pool34
7,MS,hard,4,24.382,0.5714285714285714,WQyxRdU13t,pool34
8,MS,easy,3,13.681,1,WQyxRdU13t,pool34
8,MS,medium,4,20.883,0.8,WQyxRdU13t,pool34
8,MS,hard,3,20.212,0.42857142857142855,WQyxRdU13t,pool34
9,MS,easy,3,11.93,1,WQyxRdU13t,pool34
9,MS,medium,3,17.98,0.6,WQyxRdU13t,pool34
9,MS,hard,3,16.199,0.42857142857142855,WQyxRdU13t,pool34
10,MS,easy,2,17.982,0.6666666666666666,WQyxRdU13t,pool34
10,MS,medium,3,18.514,0.6,WQyxRdU13t,pool34
10,MS,hard,4,15.385,0.5714285714285714,WQyxRdU13t,pool34
11,MS,easy,3,10.482,1,WQyxRdU13t,pool34
11,MS,medium,3,15.15,0.6,WQyxRdU13t,pool34
11,MS,hard,4,20.149,0.5714285714285714,WQyxRdU13t,pool34
12,MS,easy,3,12.182,1,WQyxRdU13t,pool34
12,MS,medium,4,19.065,0.8,WQyxRdU13t,pool34
12,MS,hard,4,16.933,0.5714285714285714,WQyxRdU13t,pool34
13,MS,easy,3,16.732,1,WQyxRdU13t,pool34
13,MS,medium,3,23.544,0.6,WQyxRdU13t,pool34
13,MS,hard,4,21.966,0.5714285714285714,WQyxRdU13t,pool34
14,MS,easy,3,9.477,1,WQyxRdU13t,pool34
14,MS,medium,4,13.932,0.8,WQyxRdU13t,pool34
14,MS,hard,4,16.783,0.5714285714285714,WQyxRdU13t,pool34
15,MS,easy,3,11.95,1,WQyxRdU13t,pool34
15,MS,medium,3,29.568,0.6,WQyxRdU13t,pool34
15,MS,hard,4,22.961,0.5714285714285714,WQyxRdU13t,pool34
16,MS,easy,3,23.312,1,WQyxRdU13t,pool34
16,MS,medium,3,13.449,0.6,WQyxRdU13t,pool34
16,MS,hard,3,20.368,0.42857142857142855,WQyxRdU13t,pool34
1,MS,easy,3,8.5968,1,u8oFh0ZHHs,pool34
1,MS,medium,5,17.7312,1,u8oFh0ZHHs,pool34
1,MS,hard,6,18.4127,0.8571428571428571,u8oFh0ZHHs,pool34
2,MS,easy,1,9.2989,0.3333333333333333,u8oFh0ZHHs,pool34
2,MS,medium,5,19.2208,1,u8oFh0ZHHs,pool34
2,MS,hard,7,16.541,1,u8oFh0ZHHs,pool34
3,MS,easy,3,6.8083,1,u8oFh0ZHHs,pool34
3,MS,medium,5,17.1871,1,u8oFh0ZHHs,pool34
3,MS,hard,6,21.1383,0.8571428571428571,u8oFh0ZHHs,pool34
4,MS,easy,3,6.992,1,u8oFh0ZHHs,pool34
4,MS,medium,4,18.7589,0.8,u8oFh0ZHHs,pool34
4,MS,hard,7,20.5782,1,u8oFh0ZHHs,pool34
5,MS,easy,3,7.153,1,u8oFh0ZHHs,pool34
5,MS,medium,5,15.9807,1,u8oFh0ZHHs,pool34
5,MS,hard,7,16.4071,1,u8oFh0ZHHs,pool34
6,MS,easy,3,7.2075,1,u8oFh0ZHHs,pool34
6,MS,medium,5,17.1262,1,u8oFh0ZHHs,pool34
6,MS,hard,6,17.9389,0.8571428571428571,u8oFh0ZHHs,pool34
7,MS,easy,3,6.1928,1,u8oFh0ZHHs,pool34
7,MS,medium,5,13.0706,1,u8oFh0ZHHs,pool34
7,MS,hard,7,21.4385,1,u8oFh0ZHHs,pool34
8,MS,easy,3,7.3918,1,u8oFh0ZHHs,pool34
8,MS,medium,5,14.1438,1,u8oFh0ZHHs,pool34
8,MS,hard,7,18.1464,1,u8oFh0ZHHs,pool34
9,MS,easy,3,7.7818,1,u8oFh0ZHHs,pool34
9,MS,medium,5,15.189,1,u8oFh0ZHHs,pool34
9,MS,hard,6,18.805,0.8571428571428571,u8oFh0ZHHs,pool34
10,MS,easy,2,12.687,0.6666666666666666,u8oFh0ZHHs,pool34
10,MS,medium,5,11.562,1,u8oFh0ZHHs,pool34
10,MS,hard,7,16.53,1,u8oFh0ZHHs,pool34
11,MS,easy,2,13.684,0.6666666666666666,u8oFh0ZHHs,pool34
11,MS,medium,5,14.0662,1,u8oFh0ZHHs,pool34
11,MS,hard,7,19.198,1,u8oFh0ZHHs,pool34
12,MS,easy,3,10.9763,1,u8oFh0ZHHs,pool34
12,MS,medium,4,12.7613,0.8,u8oFh0ZHHs,pool34
12,MS,hard,6,25.9641,0.8571428571428571,u8oFh0ZHHs,pool34
13,MS,easy,3,7.6668,1,u8oFh0ZHHs,pool34
13,MS,medium,5,12.5559,1,u8oFh0ZHHs,pool34
13,MS,hard,7,20.1857,1,u8oFh0ZHHs,pool34
14,MS,easy,3,7.629,1,u8oFh0ZHHs,pool34
14,MS,medium,5,13.2574,1,u8oFh0ZHHs,pool34
14,MS,hard,7,22.0344,1,u8oFh0ZHHs,pool34
15,MS,easy,3,9.3194,1,u8oFh0ZHHs,pool34
15,MS,medium,5,11.1691,1,u8oFh0ZHHs,pool34
15,MS,hard,7,20.4806,1,u8oFh0ZHHs,pool34
16,MS,easy,3,9.9968,1,u8oFh0ZHHs,pool34
16,MS,medium,5,19.6965,1,u8oFh0ZHHs,pool34
16,MS,hard,7,21.551,1,u8oFh0ZHHs,pool34
1,MS,easy,3,8.5111,1,lO4tI9SjJX,pool34
1,MS,medium,5,13.6921,1,lO4tI9SjJX,pool34
1,MS,hard,6,30.5483,0.8571428571428571,lO4tI9SjJX,pool34
2,MS,easy,3,10.5058,1,lO4tI9SjJX,pool34
2,MS,medium,5,12.5365,1,lO4tI9SjJX,pool34
2,MS,hard,4,29.8436,0.5714285714285714,lO4tI9SjJX,pool34
3,MS,easy,3,7.003,1,lO4tI9SjJX,pool34
3,MS,medium,5,14.9944,1,lO4tI9SjJX,pool34
3,MS,hard,6,29.2592,0.8571428571428571,lO4tI9SjJX,pool34
4,MS,easy,3,8.9483,1,lO4tI9SjJX,pool34
4,MS,medium,4,28.6916,0.8,lO4tI9SjJX,pool34
4,MS,hard,4,29.9604,0.5714285714285714,lO4tI9SjJX,pool34
5,MS,easy,3,7.6007,1,lO4tI9SjJX,pool34
5,MS,medium,5,21.9455,1,lO4tI9SjJX,pool34
5,MS,hard,4,24.7886,0.5714285714285714,lO4tI9SjJX,pool34
6,MS,easy,3,6.9125,1,lO4tI9SjJX,pool34
6,MS,medium,5,12.1559,1,lO4tI9SjJX,pool34
6,MS,hard,7,22.9234,1,lO4tI9SjJX,pool34
7,MS,easy,3,6.9175,1,lO4tI9SjJX,pool34
7,MS,medium,5,19.2203,1,lO4tI9SjJX,pool34
7,MS,hard,3,21.0114,0.42857142857142855,lO4tI9SjJX,pool34
8,MS,easy,3,9.1026,1,lO4tI9SjJX,pool34
8,MS,medium,5,17.4069,1,lO4tI9SjJX,pool34
8,MS,hard,4,21.4567,0.5714285714285714,lO4tI9SjJX,pool34
9,MS,easy,3,8.6688,1,lO4tI9SjJX,pool34
9,MS,medium,5,21.2797,1,lO4tI9SjJX,pool34
9,MS,hard,5,17.3831,0.7142857142857143,lO4tI9SjJX,pool34
10,MS,easy,3,7.2156,1,lO4tI9SjJX,pool34
10,MS,medium,5,12.9218,1,lO4tI9SjJX,pool34
10,MS,hard,5,24.4806,0.7142857142857143,lO4tI9SjJX,pool34
11,MS,easy,3,9.1217,1,lO4tI9SjJX,pool34
11,MS,medium,5,14.2044,1,lO4tI9SjJX,pool34
11,MS,hard,7,28.2652,1,lO4tI9SjJX,pool34
12,MS,easy,3,14.134,1,lO4tI9SjJX,pool34
12,MS,medium,4,26.1435,0.8,lO4tI9SjJX,pool34
12,MS,hard,5,22.0737,0.7142857142857143,lO4tI9SjJX,pool34
13,MS,easy,3,6.9845,1,lO4tI9SjJX,pool34
13,MS,medium,5,15.1941,1,lO4tI9SjJX,pool34
13,MS,hard,7,22.3903,1,lO4tI9SjJX,pool34
14,MS,easy,3,7.3985,1,lO4tI9SjJX,pool34
14,MS,medium,5,14.894,1,lO4tI9SjJX,pool34
14,MS,hard,6,21.258,0.8571428571428571,lO4tI9SjJX,pool34
15,MS,easy,3,8.1373,1,lO4tI9SjJX,pool34
15,MS,medium,5,19.8246,1,lO4tI9SjJX,pool34
15,MS,hard,5,22.1395,0.7142857142857143,lO4tI9SjJX,pool34
16,MS,easy,3,8.0346,1,lO4tI9SjJX,pool34
16,MS,medium,5,13.6049,1,lO4tI9SjJX,pool34
16,MS,hard,5,22.8913,0.7142857142857143,lO4tI9SjJX,pool34
1,MS,easy,3,7.828,1,5oMH7YJKDi,pool34
1,MS,medium,5,14.522,1,5oMH7YJKDi,pool34
1,MS,hard,7,10.657,1,5oMH7YJKDi,pool34
2,MS,easy,3,7.877,1,5oMH7YJKDi,pool34
2,MS,medium,5,8.194,1,5oMH7YJKDi,pool34
2,MS,hard,7,11.807,1,5oMH7YJKDi,pool34
3,MS,easy,3,5.379,1,5oMH7YJKDi,pool34
3,MS,medium,5,10.592,1,5oMH7YJKDi,pool34
3,MS,hard,7,11.026,1,5oMH7YJKDi,pool34
4,MS,easy,3,5.662,1,5oMH7YJKDi,pool34
4,MS,medium,5,9.548,1,5oMH7YJKDi,pool34
4,MS,hard,7,13.323,1,5oMH7YJKDi,pool34
5,MS,easy,3,5.946,1,5oMH7YJKDi,pool34
5,MS,medium,5,9.46,1,5oMH7YJKDi,pool34
5,MS,hard,7,9.842,1,5oMH7YJKDi,pool34
6,MS,easy,3,7.078,1,5oMH7YJKDi,pool34
6,MS,medium,5,8.76,1,5oMH7YJKDi,pool34
6,MS,hard,7,13.358,1,5oMH7YJKDi,pool34
7,MS,easy,3,5.794,1,5oMH7YJKDi,pool34
7,MS,medium,5,7.994,1,5oMH7YJKDi,pool34
7,MS,hard,7,12.312,1,5oMH7YJKDi,pool34
8,MS,easy,3,5.329,1,5oMH7YJKDi,pool34
8,MS,medium,5,9.27,1,5oMH7YJKDi,pool34
8,MS,hard,7,14.508,1,5oMH7YJKDi,pool34
9,MS,easy,3,6.296,1,5oMH7YJKDi,pool34
9,MS,medium,5,8.411,1,5oMH7YJKDi,pool34
9,MS,hard,7,11.375,1,5oMH7YJKDi,pool34
10,MS,easy,3,5.346,1,5oMH7YJKDi,pool34
10,MS,medium,5,8.765,1,5oMH7YJKDi,pool34
10,MS,hard,7,9.405,1,5oMH7YJKDi,pool34
11,MS,easy,3,5.296,1,5oMH7YJKDi,pool34
11,MS,medium,5,8.693,1,5oMH7YJKDi,pool34
11,MS,hard,7,9.993,1,5oMH7YJKDi,pool34
12,MS,easy,3,6.217,1,5oMH7YJKDi,pool34
12,MS,medium,5,8.844,1,5oMH7YJKDi,pool34
12,MS,hard,7,10.909,1,5oMH7YJKDi,pool34
13,MS,easy,3,7.21,1,5oMH7YJKDi,pool34
13,MS,medium,5,7.212,1,5oMH7YJKDi,pool34
13,MS,hard,5,12.99,0.7142857142857143,5oMH7YJKDi,pool34
14,MS,easy,3,5.399,1,5oMH7YJKDi,pool34
14,MS,medium,5,7.361,1,5oMH7YJKDi,pool34
14,MS,hard,7,12.241,1,5oMH7YJKDi,pool34
15,MS,easy,3,4.978,1,5oMH7YJKDi,pool34
15,MS,medium,5,18.116,1,5oMH7YJKDi,pool34
15,MS,hard,6,12.489,0.8571428571428571,5oMH7YJKDi,pool34
16,MS,easy,3,7.753,1,5oMH7YJKDi,pool34
16,MS,medium,5,8.706,1,5oMH7YJKDi,pool34
16,MS,hard,7,12.657,1,5oMH7YJKDi,pool34
1,MS,easy,3,11.5219,1,wBsXFrRWgF,pool34
1,MS,medium,2,12.4789,0.4,wBsXFrRWgF,pool34
1,MS,hard,4,15.2964,0.5714285714285714,wBsXFrRWgF,pool34
2,MS,easy,2,10.2827,0.6666666666666666,wBsXFrRWgF,pool34
2,MS,medium,2,16.2826,0.4,wBsXFrRWgF,pool34
2,MS,hard,2,6.5653,0.2857142857142857,wBsXFrRWgF,pool34
3,MS,easy,3,8.2665,1,wBsXFrRWgF,pool34
3,MS,medium,3,14.4329,0.6,wBsXFrRWgF,pool34
3,MS,hard,4,11.2826,0.5714285714285714,wBsXFrRWgF,pool34
4,MS,easy,2,8.9999,0.6666666666666666,wBsXFrRWgF,pool34
4,MS,medium,3,12.2659,0.6,wBsXFrRWgF,pool34
4,MS,hard,1,6.116,0.14285714285714285,wBsXFrRWgF,pool34
5,MS,easy,3,11.0836,1,wBsXFrRWgF,pool34
5,MS,medium,2,12.3494,0.4,wBsXFrRWgF,pool34
5,MS,hard,4,16.004,0.5714285714285714,wBsXFrRWgF,pool34
6,MS,easy,3,8.066,1,wBsXFrRWgF,pool34
6,MS,medium,3,18.1493,0.6,wBsXFrRWgF,pool34
6,MS,hard,4,15.4362,0.5714285714285714,wBsXFrRWgF,pool34
7,MS,easy,3,9.5328,1,wBsXFrRWgF,pool34
7,MS,medium,3,8.316,0.6,wBsXFrRWgF,pool34
7,MS,hard,3,12.069,0.42857142857142855,wBsXFrRWgF,pool34
8,MS,easy,3,8.5657,1,wBsXFrRWgF,pool34
8,MS,medium,3,17.3665,0.6,wBsXFrRWgF,pool34
8,MS,hard,4,15.486,0.5714285714285714,wBsXFrRWgF,pool34
9,MS,easy,3,9.3162,1,wBsXFrRWgF,pool34
9,MS,medium,4,10.5492,0.8,wBsXFrRWgF,pool34
9,MS,hard,1,11.4029,0.14285714285714285,wBsXFrRWgF,pool34
10,MS,easy,2,9.7001,0.6666666666666666,wBsXFrRWgF,pool34
10,MS,medium,2,18.516,0.4,wBsXFrRWgF,pool34
10,MS,hard,3,11.3532,0.42857142857142855,wBsXFrRWgF,pool34
11,MS,easy,3,8.5497,1,wBsXFrRWgF,pool34
11,MS,medium,3,11.6492,0.6,wBsXFrRWgF,pool34
11,MS,hard,4,13.1319,0.5714285714285714,wBsXFrRWgF,pool34
12,MS,easy,3,10.449,1,wBsXFrRWgF,pool34
12,MS,medium,1,7.8163,0.2,wBsXFrRWgF,pool34
12,MS,hard,2,10.3491,0.2857142857142857,wBsXFrRWgF,pool34
13,MS,easy,3,9.5336,1,wBsXFrRWgF,pool34
13,MS,medium,2,11.0164,0.4,wBsXFrRWgF,pool34
13,MS,hard,4,17.8004,0.5714285714285714,wBsXFrRWgF,pool34
14,MS,easy,3,11.8668,1,wBsXFrRWgF,pool34
14,MS,medium,4,16.5164,0.8,wBsXFrRWgF,pool34
14,MS,hard,3,10.4996,0.42857142857142855,wBsXFrRWgF,pool34
15,MS,easy,3,8.9164,1,wBsXFrRWgF,pool34
15,MS,medium,4,20.6329,0.8,wBsXFrRWgF,pool34
15,MS,hard,5,15.1658,0.7142857142857143,wBsXFrRWgF,pool34
16,MS,easy,3,8.4999,1,wBsXFrRWgF,pool34
16,MS,medium,2,12.2497,0.4,wBsXFrRWgF,pool34
16,MS,hard,2,9.8028,0.2857142857142857,wBsXFrRWgF,pool34
1,MS,easy,3,11.3316,1,PkgTbVVI07,pool34
1,MS,medium,5,12.4812,1,PkgTbVVI07,pool34
1,MS,hard,5,15.9218,0.7142857142857143,PkgTbVVI07,pool34
2,MS,easy,3,9.6132,1,PkgTbVVI07,pool34
2,MS,medium,5,17.5767,1,PkgTbVVI07,pool34
2,MS,hard,4,14.3066,0.5714285714285714,PkgTbVVI07,pool34
3,MS,easy,3,6.9648,1,PkgTbVVI07,pool34
3,MS,medium,5,12.7222,1,PkgTbVVI07,pool34
3,MS,hard,6,16.5931,0.8571428571428571,PkgTbVVI07,pool34
4,MS,easy,3,5.298,1,PkgTbVVI07,pool34
4,MS,medium,4,12.8112,0.8,PkgTbVVI07,pool34
4,MS,hard,6,23.1575,0.8571428571428571,PkgTbVVI07,pool34
5,MS,easy,3,7.8466,1,PkgTbVVI07,pool34
5,MS,medium,5,17.426,1,PkgTbVVI07,pool34
5,MS,hard,5,12.2776,0.7142857142857143,PkgTbVVI07,pool34
6,MS,easy,3,8.2519,1,PkgTbVVI07,pool34
6,MS,medium,5,15.0444,1,PkgTbVVI07,pool34
6,MS,hard,6,24.0342,0.8571428571428571,PkgTbVVI07,pool34
7,MS,easy,3,8.8126,1,PkgTbVVI07,pool34
7,MS,medium,5,11.719,1,PkgTbVVI07,pool34
7,MS,hard,6,18.6865,0.8571428571428571,PkgTbVVI07,pool34
8,MS,easy,3,7.863,1,PkgTbVVI07,pool34
8,MS,medium,3,11.9463,0.6,PkgTbVVI07,pool34
8,MS,hard,5,19.8328,0.7142857142857143,PkgTbVVI07,pool34
9,MS,easy,3,16.8309,1,PkgTbVVI07,pool34
9,MS,medium,5,14.0782,1,PkgTbVVI07,pool34
9,MS,hard,4,14.1278,0.5714285714285714,PkgTbVVI07,pool34
10,MS,easy,3,8.7481,1,PkgTbVVI07,pool34
10,MS,medium,4,11.0952,0.8,PkgTbVVI07,pool34
10,MS,hard,5,13.1947,0.7142857142857143,PkgTbVVI07,pool34
11,MS,easy,3,9.8899,1,PkgTbVVI07,pool34
11,MS,medium,5,13.5783,1,PkgTbVVI07,pool34
11,MS,hard,5,17.4022,0.7142857142857143,PkgTbVVI07,pool34
12,MS,easy,3,8.5873,1,PkgTbVVI07,pool34
12,MS,medium,5,13.9282,1,PkgTbVVI07,pool34
12,MS,hard,5,16.9029,0.7142857142857143,PkgTbVVI07,pool34
13,MS,easy,3,9.748,1,PkgTbVVI07,pool34
13,MS,medium,5,20.2108,1,PkgTbVVI07,pool34
13,MS,hard,4,13.7439,0.5714285714285714,PkgTbVVI07,pool34
14,MS,easy,3,9.2219,1,PkgTbVVI07,pool34
14,MS,medium,5,15.4596,1,PkgTbVVI07,pool34
14,MS,hard,5,13.5853,0.7142857142857143,PkgTbVVI07,pool34
15,MS,easy,3,7.297,1,PkgTbVVI07,pool34
15,MS,medium,5,19.1499,1,PkgTbVVI07,pool34
15,MS,hard,3,11.3037,0.42857142857142855,PkgTbVVI07,pool34
16,MS,easy,3,7.6646,1,PkgTbVVI07,pool34
16,MS,medium,4,12.0694,0.8,PkgTbVVI07,pool34
16,MS,hard,5,13.5611,0.7142857142857143,PkgTbVVI07,pool34
1,MS,easy,3,7.8165,1,0wY7q7AFDw,pool34
1,MS,medium,5,15.9188,1,0wY7q7AFDw,pool34
1,MS,hard,6,23.8473,0.8571428571428571,0wY7q7AFDw,pool34
2,MS,easy,3,7.8367000000000004,1,0wY7q7AFDw,pool34
2,MS,medium,5,12.3344,1,0wY7q7AFDw,pool34
2,MS,hard,4,22.9661,0.5714285714285714,0wY7q7AFDw,pool34
3,MS,easy,3,9.0836,1,0wY7q7AFDw,pool34
3,MS,medium,5,16.9401,1,0wY7q7AFDw,pool34
3,MS,hard,4,12.818,0.5714285714285714,0wY7q7AFDw,pool34
4,MS,easy,3,9.0412,1,0wY7q7AFDw,pool34
4,MS,medium,5,14.3788,1,0wY7q7AFDw,pool34
4,MS,hard,1,13.6311,0.14285714285714285,0wY7q7AFDw,pool34
5,MS,easy,3,7.9881,1,0wY7q7AFDw,pool34
5,MS,medium,5,14.3514,1,0wY7q7AFDw,pool34
5,MS,hard,2,12.9108,0.2857142857142857,0wY7q7AFDw,pool34
6,MS,easy,3,8.1613,1,0wY7q7AFDw,pool34
6,MS,medium,5,14.9124,1,0wY7q7AFDw,pool34
6,MS,hard,4,130.9813,0.5714285714285714,0wY7q7AFDw,pool34
7,MS,easy,3,7.8683,1,0wY7q7AFDw,pool34
7,MS,medium,5,13.2148,1,0wY7q7AFDw,pool34
7,MS,hard,5,19.7304,0.7142857142857143,0wY7q7AFDw,pool34
8,MS,easy,3,10.3226,1,0wY7q7AFDw,pool34
8,MS,medium,4,12.87,0.8,0wY7q7AFDw,pool34
8,MS,hard,5,19.2713,0.7142857142857143,0wY7q7AFDw,pool34
9,MS,easy,3,10.5102,1,0wY7q7AFDw,pool34
9,MS,medium,5,13.4583,1,0wY7q7AFDw,pool34
9,MS,hard,3,11.1631,0.42857142857142855,0wY7q7AFDw,pool34
10,MS,easy,3,8.456,1,0wY7q7AFDw,pool34
10,MS,medium,5,15.7376,1,0wY7q7AFDw,pool34
10,MS,hard,5,12.2712,0.7142857142857143,0wY7q7AFDw,pool34
11,MS,easy,3,7.0953,1,0wY7q7AFDw,pool34
11,MS,medium,5,20.7529,1,0wY7q7AFDw,pool34
11,MS,hard,5,25.8226,0.7142857142857143,0wY7q7AFDw,pool34
12,MS,easy,3,8.9668,1,0wY7q7AFDw,pool34
12,MS,medium,5,12.5518,1,0wY7q7AFDw,pool34
12,MS,hard,3,22.7031,0.42857142857142855,0wY7q7AFDw,pool34
13,MS,easy,3,9.9359,1,0wY7q7AFDw,pool34
13,MS,medium,5,12.3881,1,0wY7q7AFDw,pool34
13,MS,hard,5,12.5775,0.7142857142857143,0wY7q7AFDw,pool34
14,MS,easy,3,9.4011,1,0wY7q7AFDw,pool34
14,MS,medium,5,13.8844,1,0wY7q7AFDw,pool34
14,MS,hard,4,14.4845,0.5714285714285714,0wY7q7AFDw,pool34
15,MS,easy,3,7.6333,1,0wY7q7AFDw,pool34
15,MS,medium,5,14.5808,1,0wY7q7AFDw,pool34
15,MS,hard,4,9.5866,0.5714285714285714,0wY7q7AFDw,pool34
16,MS,easy,3,9.963,1,0wY7q7AFDw,pool34
16,MS,medium,4,13.1402,0.8,0wY7q7AFDw,pool34
16,MS,hard,4,11.9747,0.5714285714285714,0wY7q7AFDw,pool34
1,MS,easy,3,12.9903,1,woSzLv5BIV,pool34
1,MS,medium,5,17.548,1,woSzLv5BIV,pool34
1,MS,hard,6,17.6733,0.8571428571428571,woSzLv5BIV,pool34
2,MS,easy,3,9.3831,1,woSzLv5BIV,pool34
2,MS,medium,5,14.8503,1,woSzLv5BIV,pool34
2,MS,hard,6,17.8009,0.8571428571428571,woSzLv5BIV,pool34
3,MS,easy,3,8.0332,1,woSzLv5BIV,pool34
3,MS,medium,5,17.7156,1,woSzLv5BIV,pool34
3,MS,hard,5,14.6341,0.7142857142857143,woSzLv5BIV,pool34
4,MS,easy,1,9.6997,0.3333333333333333,woSzLv5BIV,pool34
4,MS,medium,5,15.033,1,woSzLv5BIV,pool34
4,MS,hard,5,19.8836,0.7142857142857143,woSzLv5BIV,pool34
5,MS,easy,2,8.6496,0.6666666666666666,woSzLv5BIV,pool34
5,MS,medium,5,19.1992,1,woSzLv5BIV,pool34
5,MS,hard,4,19.6842,0.5714285714285714,woSzLv5BIV,pool34
6,MS,easy,2,13.5497,0.6666666666666666,woSzLv5BIV,pool34
6,MS,medium,5,13.5663,1,woSzLv5BIV,pool34
6,MS,hard,4,14.1575,0.5714285714285714,woSzLv5BIV,pool34
7,MS,easy,2,13.1999,0.6666666666666666,woSzLv5BIV,pool34
7,MS,medium,4,18.983,0.8,woSzLv5BIV,pool34
7,MS,hard,4,10.5993,0.5714285714285714,woSzLv5BIV,pool34
8,MS,easy,3,13.9331,1,woSzLv5BIV,pool34
8,MS,medium,4,12.9499,0.8,woSzLv5BIV,pool34
8,MS,hard,5,13.6161,0.7142857142857143,woSzLv5BIV,pool34
9,MS,easy,3,8.2328,1,woSzLv5BIV,pool34
9,MS,medium,5,11.099,1,woSzLv5BIV,pool34
9,MS,hard,5,15.8153,0.7142857142857143,woSzLv5BIV,pool34
10,MS,easy,3,14.1996,1,woSzLv5BIV,pool34
10,MS,medium,5,13.083,1,woSzLv5BIV,pool34
10,MS,hard,4,11.5994,0.5714285714285714,woSzLv5BIV,pool34
11,MS,easy,3,10.4826,1,woSzLv5BIV,pool34
11,MS,medium,4,19.0493,0.8,woSzLv5BIV,pool34
11,MS,hard,3,13.2496,0.42857142857142855,woSzLv5BIV,pool34
12,MS,easy,3,11.5664,1,woSzLv5BIV,pool34
12,MS,medium,5,11.7327,1,woSzLv5BIV,pool34
12,MS,hard,5,13.8998,0.7142857142857143,woSzLv5BIV,pool34
13,MS,easy,3,8.1497,1,woSzLv5BIV,pool34
13,MS,medium,5,12.3327,1,woSzLv5BIV,pool34
13,MS,hard,5,15.0494,0.7142857142857143,woSzLv5BIV,pool34
14,MS,easy,3,9.1498,1,woSzLv5BIV,pool34
14,MS,medium,4,13.4331,0.8,woSzLv5BIV,pool34
14,MS,hard,4,11.6162,0.5714285714285714,woSzLv5BIV,pool34
15,MS,easy,3,9.5164,1,woSzLv5BIV,pool34
15,MS,medium,4,13.9665,0.8,woSzLv5BIV,pool34
15,MS,hard,4,9.4667,0.5714285714285714,woSzLv5BIV,pool34
16,MS,easy,3,10.3997,1,woSzLv5BIV,pool34
16,MS,medium,3,31.1492,0.6,woSzLv5BIV,pool34
16,MS,hard,4,10.1995,0.5714285714285714,woSzLv5BIV,pool34
1,MS,easy,3,8.4051,1,O0ngZJhb9l,pool34
1,MS,medium,5,15.2193,1,O0ngZJhb9l,pool34
1,MS,hard,5,24.6931,0.7142857142857143,O0ngZJhb9l,pool34
2,MS,easy,3,6.5083,1,O0ngZJhb9l,pool34
2,MS,medium,3,27.7961,0.6,O0ngZJhb9l,pool34
2,MS,hard,5,31.895,0.7142857142857143,O0ngZJhb9l,pool34
3,MS,easy,3,7.3385,1,O0ngZJhb9l,pool34
3,MS,medium,3,27.5096,0.6,O0ngZJhb9l,pool34
3,MS,hard,5,22.8641,0.7142857142857143,O0ngZJhb9l,pool34
4,MS,easy,3,8.7276,1,O0ngZJhb9l,pool34
4,MS,medium,3,28.7121,0.6,O0ngZJhb9l,pool34
4,MS,hard,5,28.6469,0.7142857142857143,O0ngZJhb9l,pool34
5,MS,easy,3,5.8474,1,O0ngZJhb9l,pool34
5,MS,medium,2,28.6941,0.4,O0ngZJhb9l,pool34
5,MS,hard,4,25.4233,0.5714285714285714,O0ngZJhb9l,pool34
6,MS,easy,3,8.8991,1,O0ngZJhb9l,pool34
6,MS,medium,1,41.169,0.2,O0ngZJhb9l,pool34
6,MS,hard,5,26.2872,0.7142857142857143,O0ngZJhb9l,pool34
7,MS,easy,3,6.9992,1,O0ngZJhb9l,pool34
7,MS,medium,3,39.0667,0.6,O0ngZJhb9l,pool34
7,MS,hard,5,31.2204,0.7142857142857143,O0ngZJhb9l,pool34
8,MS,easy,3,6.5925,1,O0ngZJhb9l,pool34
8,MS,medium,3,30.6107,0.6,O0ngZJhb9l,pool34
8,MS,hard,5,32.8301,0.7142857142857143,O0ngZJhb9l,pool34
9,MS,easy,3,7.7963,1,O0ngZJhb9l,pool34
9,MS,medium,3,32.3557,0.6,O0ngZJhb9l,pool34
9,MS,hard,5,31.4235,0.7142857142857143,O0ngZJhb9l,pool34
10,MS,easy,3,8.0497,1,O0ngZJhb9l,pool34
10,MS,medium,4,25.4235,0.8,O0ngZJhb9l,pool34
10,MS,hard,4,22.5587,0.5714285714285714,O0ngZJhb9l,pool34
11,MS,easy,3,6.2709,1,O0ngZJhb9l,pool34
11,MS,medium,4,39.5078,0.8,O0ngZJhb9l,pool34
11,MS,hard,4,21.0837,0.5714285714285714,O0ngZJhb9l,pool34
12,MS,easy,3,6.0514,1,O0ngZJhb9l,pool34
12,MS,medium,4,27.2924,0.8,O0ngZJhb9l,pool34
12,MS,hard,5,25.2363,0.7142857142857143,O0ngZJhb9l,pool34
13,MS,easy,3,7.3056,1,O0ngZJhb9l,pool34
13,MS,medium,4,25.2033,0.8,O0ngZJhb9l,pool34
13,MS,hard,4,65.9311,0.5714285714285714,O0ngZJhb9l,pool34
14,MS,easy,3,7.6444,1,O0ngZJhb9l,pool34
14,MS,medium,4,29.4236,0.8,O0ngZJhb9l,pool34
14,MS,hard,5,19.2708,0.7142857142857143,O0ngZJhb9l,pool34
15,MS,easy,3,6.6439,1,O0ngZJhb9l,pool34
15,MS,medium,5,25.2023,1,O0ngZJhb9l,pool34
15,MS,hard,5,38.6428,0.7142857142857143,O0ngZJhb9l,pool34
16,MS,easy,3,8.3725,1,O0ngZJhb9l,pool34
16,MS,medium,4,23.6941,0.8,O0ngZJhb9l,pool34
16,MS,hard,5,28.9996,0.7142857142857143,O0ngZJhb9l,pool34
1,MS,easy,3,20.3643,1,ttxEdLIMGM,pool34
1,MS,medium,5,35.0333,1,ttxEdLIMGM,pool34
1,MS,hard,7,41.4296,1,ttxEdLIMGM,pool34
2,MS,easy,2,32.7145,0.6666666666666666,ttxEdLIMGM,pool34
2,MS,medium,5,31.4665,1,ttxEdLIMGM,pool34
2,MS,hard,7,52.2876,1,ttxEdLIMGM,pool34
3,MS,easy,3,18.5963,1,ttxEdLIMGM,pool34
3,MS,medium,5,33.6963,1,ttxEdLIMGM,pool34
3,MS,hard,6,46.0333,0.8571428571428571,ttxEdLIMGM,pool34
4,MS,easy,3,18.8655,1,ttxEdLIMGM,pool34
4,MS,medium,5,24.6345,1,ttxEdLIMGM,pool34
4,MS,hard,7,57.5175,1,ttxEdLIMGM,pool34
5,MS,easy,3,26.8088,1,ttxEdLIMGM,pool34
5,MS,medium,5,29.5147,1,ttxEdLIMGM,pool34
5,MS,hard,7,35.4224,1,ttxEdLIMGM,pool34
6,MS,easy,3,17.2636,1,ttxEdLIMGM,pool34
6,MS,medium,5,27.6194,1,ttxEdLIMGM,pool34
6,MS,hard,7,44.5226,1,ttxEdLIMGM,pool34
7,MS,easy,3,20.3812,1,ttxEdLIMGM,pool34
7,MS,medium,5,25.5351,1,ttxEdLIMGM,pool34
7,MS,hard,7,42.2757,1,ttxEdLIMGM,pool34
8,MS,easy,3,19.1148,1,ttxEdLIMGM,pool34
8,MS,medium,5,35.7127,1,ttxEdLIMGM,pool34
8,MS,hard,7,38.4872,1,ttxEdLIMGM,pool34
9,MS,easy,3,18.5995,1,ttxEdLIMGM,pool34
9,MS,medium,5,27.2146,1,ttxEdLIMGM,pool34
9,MS,hard,7,40.4519,1,ttxEdLIMGM,pool34
10,MS,easy,3,17.8032,1,ttxEdLIMGM,pool34
10,MS,medium,5,27.2087,1,ttxEdLIMGM,pool34
10,MS,hard,7,42.9061,1,ttxEdLIMGM,pool34
11,MS,easy,3,21.4961,1,ttxEdLIMGM,pool34
11,MS,medium,5,25.985,1,ttxEdLIMGM,pool34
11,MS,hard,7,38.4668,1,ttxEdLIMGM,pool34
12,MS,easy,3,20.0788,1,ttxEdLIMGM,pool34
12,MS,medium,5,28.1596,1,ttxEdLIMGM,pool34
12,MS,hard,7,46.4301,1,ttxEdLIMGM,pool34
13,MS,easy,3,21.5438,1,ttxEdLIMGM,pool34
13,MS,medium,5,24.343,1,ttxEdLIMGM,pool34
13,MS,hard,7,48.1362,1,ttxEdLIMGM,pool34
14,MS,easy,3,18.109,1,ttxEdLIMGM,pool34
14,MS,medium,5,36.8412,1,ttxEdLIMGM,pool34
14,MS,hard,7,49.5015,1,ttxEdLIMGM,pool34
15,MS,easy,3,18.2411,1,ttxEdLIMGM,pool34
15,MS,medium,5,25.416,1,ttxEdLIMGM,pool34
15,MS,hard,7,47.8017,1,ttxEdLIMGM,pool34
16,MS,easy,3,19.6097,1,ttxEdLIMGM,pool34
16,MS,medium,5,24.5034,1,ttxEdLIMGM,pool34
16,MS,hard,7,51.9682,1,ttxEdLIMGM,pool34
1,MS,easy,3,10.2318,1,pevbr5tS1I,pool34
1,MS,medium,5,14.5618,1,pevbr5tS1I,pool34
1,MS,hard,6,21.0613,0.8571428571428571,pevbr5tS1I,pool34
2,MS,easy,3,10.5154,1,pevbr5tS1I,pool34
2,MS,medium,5,17.115,1,pevbr5tS1I,pool34
2,MS,hard,5,21.4992,0.7142857142857143,pevbr5tS1I,pool34
3,MS,easy,3,9.1487,1,pevbr5tS1I,pool34
3,MS,medium,5,13.2322,1,pevbr5tS1I,pool34
3,MS,hard,4,16.5986,0.5714285714285714,pevbr5tS1I,pool34
4,MS,easy,3,10.2494,1,pevbr5tS1I,pool34
4,MS,medium,2,22.3487,0.4,pevbr5tS1I,pool34
4,MS,hard,5,18.3315,0.7142857142857143,pevbr5tS1I,pool34
5,MS,easy,3,9.5825,1,pevbr5tS1I,pool34
5,MS,medium,5,17.1489,1,pevbr5tS1I,pool34
5,MS,hard,5,16.5657,0.7142857142857143,pevbr5tS1I,pool34
6,MS,easy,3,11.2002,1,pevbr5tS1I,pool34
6,MS,medium,5,13.6321,1,pevbr5tS1I,pool34
6,MS,hard,2,12.6325,0.2857142857142857,pevbr5tS1I,pool34
7,MS,easy,3,12.3494,1,pevbr5tS1I,pool34
7,MS,medium,5,16.4653,1,pevbr5tS1I,pool34
7,MS,hard,3,12.8485,0.42857142857142855,pevbr5tS1I,pool34
8,MS,easy,3,11.5992,1,pevbr5tS1I,pool34
8,MS,medium,5,13.5069,1,pevbr5tS1I,pool34
8,MS,hard,4,12.2319,0.5714285714285714,pevbr5tS1I,pool34
9,MS,easy,2,8.4652,0.6666666666666666,pevbr5tS1I,pool34
9,MS,medium,5,12.7008,1,pevbr5tS1I,pool34
9,MS,hard,5,14.182,0.7142857142857143,pevbr5tS1I,pool34
10,MS,easy,3,8.8661,1,pevbr5tS1I,pool34
10,MS,medium,5,17.1047,1,pevbr5tS1I,pool34
10,MS,hard,2,18.4562,0.2857142857142857,pevbr5tS1I,pool34
11,MS,easy,3,11.7325,1,pevbr5tS1I,pool34
11,MS,medium,5,16.4823,1,pevbr5tS1I,pool34
11,MS,hard,4,13.9791,0.5714285714285714,pevbr5tS1I,pool34
12,MS,easy,3,10.0322,1,pevbr5tS1I,pool34
12,MS,medium,4,15.6321,0.8,pevbr5tS1I,pool34
12,MS,hard,4,12.6149,0.5714285714285714,pevbr5tS1I,pool34
13,MS,easy,3,8.0488,1,pevbr5tS1I,pool34
13,MS,medium,5,12.5656,1,pevbr5tS1I,pool34
13,MS,hard,5,16.3827,0.7142857142857143,pevbr5tS1I,pool34
14,MS,easy,2,9.8335,0.6666666666666666,pevbr5tS1I,pool34
14,MS,medium,5,12.8657,1,pevbr5tS1I,pool34
14,MS,hard,3,10.9494,0.42857142857142855,pevbr5tS1I,pool34
15,MS,easy,3,12.0495,1,pevbr5tS1I,pool34
15,MS,medium,5,13.0328,1,pevbr5tS1I,pool34
15,MS,hard,5,14.4815,0.7142857142857143,pevbr5tS1I,pool34
16,MS,easy,3,8.5829,1,pevbr5tS1I,pool34
16,MS,medium,5,14.3483,1,pevbr5tS1I,pool34
16,MS,hard,4,14.6239,0.5714285714285714,pevbr5tS1I,pool34
1,MS,easy,3,11.1654,1,zMSGYZOzxF,pool34
1,MS,medium,5,19.8575,1,zMSGYZOzxF,pool34
1,MS,hard,4,20.7234,0.5714285714285714,zMSGYZOzxF,pool34
2,MS,easy,3,10.4336,1,zMSGYZOzxF,pool34
2,MS,medium,5,19.166,1,zMSGYZOzxF,pool34
2,MS,hard,4,20.5656,0.5714285714285714,zMSGYZOzxF,pool34
3,MS,easy,3,13.166,1,zMSGYZOzxF,pool34
3,MS,medium,5,15.4978,1,zMSGYZOzxF,pool34
3,MS,hard,4,17.7314,0.5714285714285714,zMSGYZOzxF,pool34
4,MS,easy,3,11.7329,1,zMSGYZOzxF,pool34
4,MS,medium,3,12.0658,0.6,zMSGYZOzxF,pool34
4,MS,hard,4,24.299,0.5714285714285714,zMSGYZOzxF,pool34
5,MS,easy,3,12.5997,1,zMSGYZOzxF,pool34
5,MS,medium,5,18.0988,1,zMSGYZOzxF,pool34
5,MS,hard,4,16.2982,0.5714285714285714,zMSGYZOzxF,pool34
6,MS,easy,3,10.033,1,zMSGYZOzxF,pool34
6,MS,medium,5,15.3317,1,zMSGYZOzxF,pool34
6,MS,hard,5,16.4319,0.7142857142857143,zMSGYZOzxF,pool34
7,MS,easy,3,10.6323,1,zMSGYZOzxF,pool34
7,MS,medium,3,19.0318,0.6,zMSGYZOzxF,pool34
7,MS,hard,4,18.7985,0.5714285714285714,zMSGYZOzxF,pool34
8,MS,easy,3,10.6332,1,zMSGYZOzxF,pool34
8,MS,medium,4,15.9664,0.8,zMSGYZOzxF,pool34
8,MS,hard,5,20.5315,0.7142857142857143,zMSGYZOzxF,pool34
9,MS,easy,3,12.0012,1,zMSGYZOzxF,pool34
9,MS,medium,4,29.4315,0.8,zMSGYZOzxF,pool34
9,MS,hard,4,19.7667,0.5714285714285714,zMSGYZOzxF,pool34
10,MS,easy,3,12.2991,1,zMSGYZOzxF,pool34
10,MS,medium,4,25.3987,0.8,zMSGYZOzxF,pool34
10,MS,hard,4,27.6322,0.5714285714285714,zMSGYZOzxF,pool34
11,MS,easy,3,9.8685,1,zMSGYZOzxF,pool34
11,MS,medium,5,15.4992,1,zMSGYZOzxF,pool34
11,MS,hard,3,18.5338,0.42857142857142855,zMSGYZOzxF,pool34
12,MS,easy,3,10.2661,1,zMSGYZOzxF,pool34
12,MS,medium,5,14.8321,1,zMSGYZOzxF,pool34
12,MS,hard,5,28.9639,0.7142857142857143,zMSGYZOzxF,pool34
13,MS,easy,3,9.1326,1,zMSGYZOzxF,pool34
13,MS,medium,5,19.9993,1,zMSGYZOzxF,pool34
13,MS,hard,4,30.7646,0.5714285714285714,zMSGYZOzxF,pool34
14,MS,easy,3,11.1666,1,zMSGYZOzxF,pool34
14,MS,medium,3,17.8328,0.6,zMSGYZOzxF,pool34
14,MS,hard,4,38.7972,0.5714285714285714,zMSGYZOzxF,pool34
15,MS,easy,3,9.5996,1,zMSGYZOzxF,pool34
15,MS,medium,5,15.1992,1,zMSGYZOzxF,pool34
15,MS,hard,4,13.0312,0.5714285714285714,zMSGYZOzxF,pool34
16,MS,easy,3,10.2658,1,zMSGYZOzxF,pool34
16,MS,medium,5,20.7635,1,zMSGYZOzxF,pool34
16,MS,hard,5,14.9319,0.7142857142857143,zMSGYZOzxF,pool34
1,MS,easy,3,10.9497,1,FgaXoRhEpQ,pool34
1,MS,medium,5,20.7808,1,FgaXoRhEpQ,pool34
1,MS,hard,4,37.2464,0.5714285714285714,FgaXoRhEpQ,pool34
2,MS,easy,3,14.3224,1,FgaXoRhEpQ,pool34
2,MS,medium,3,21.8337,0.6,FgaXoRhEpQ,pool34
2,MS,hard,5,21.7662,0.7142857142857143,FgaXoRhEpQ,pool34
3,MS,easy,3,10.4825,1,FgaXoRhEpQ,pool34
3,MS,medium,5,15.3327,1,FgaXoRhEpQ,pool34
3,MS,hard,4,17.8223,0.5714285714285714,FgaXoRhEpQ,pool34
4,MS,easy,3,12.8894,1,FgaXoRhEpQ,pool34
4,MS,medium,2,17.667,0.4,FgaXoRhEpQ,pool34
4,MS,hard,3,21.3661,0.42857142857142855,FgaXoRhEpQ,pool34
5,MS,easy,3,10.4496,1,FgaXoRhEpQ,pool34
5,MS,medium,4,13.3495,0.8,FgaXoRhEpQ,pool34
5,MS,hard,4,32.3487,0.5714285714285714,FgaXoRhEpQ,pool34
6,MS,easy,3,14.0559,1,FgaXoRhEpQ,pool34
6,MS,medium,4,12.3998,0.8,FgaXoRhEpQ,pool34
6,MS,hard,4,25.2822,0.5714285714285714,FgaXoRhEpQ,pool34
7,MS,easy,3,10.1723,1,FgaXoRhEpQ,pool34
7,MS,medium,4,12.5989,0.8,FgaXoRhEpQ,pool34
7,MS,hard,4,22.8491,0.5714285714285714,FgaXoRhEpQ,pool34
8,MS,easy,3,12.0717,1,FgaXoRhEpQ,pool34
8,MS,medium,4,13.1997,0.8,FgaXoRhEpQ,pool34
8,MS,hard,3,17.4315,0.42857142857142855,FgaXoRhEpQ,pool34
9,MS,easy,3,9.15,1,FgaXoRhEpQ,pool34
9,MS,medium,5,16.9496,1,FgaXoRhEpQ,pool34
9,MS,hard,5,23.3489,0.7142857142857143,FgaXoRhEpQ,pool34
10,MS,easy,3,10.872,1,FgaXoRhEpQ,pool34
10,MS,medium,4,18.915,0.8,FgaXoRhEpQ,pool34
10,MS,hard,4,24.5048,0.5714285714285714,FgaXoRhEpQ,pool34
11,MS,easy,3,10.9043,1,FgaXoRhEpQ,pool34
11,MS,medium,5,16.0156,1,FgaXoRhEpQ,pool34
11,MS,hard,4,27.6162,0.5714285714285714,FgaXoRhEpQ,pool34
12,MS,easy,3,11.3002,1,FgaXoRhEpQ,pool34
12,MS,medium,4,19.082,0.8,FgaXoRhEpQ,pool34
12,MS,hard,4,17.8819,0.5714285714285714,FgaXoRhEpQ,pool34
13,MS,easy,3,10.2552,1,FgaXoRhEpQ,pool34
13,MS,medium,4,17.4487,0.8,FgaXoRhEpQ,pool34
13,MS,hard,3,21.5823,0.42857142857142855,FgaXoRhEpQ,pool34
14,MS,easy,3,9.7391,1,FgaXoRhEpQ,pool34
14,MS,medium,3,15.7489,0.6,FgaXoRhEpQ,pool34
14,MS,hard,4,16.9826,0.5714285714285714,FgaXoRhEpQ,pool34
15,MS,easy,3,11.8384,1,FgaXoRhEpQ,pool34
15,MS,medium,3,19.7154,0.6,FgaXoRhEpQ,pool34
15,MS,hard,4,25.8161,0.5714285714285714,FgaXoRhEpQ,pool34
16,MS,easy,3,10.1553,1,FgaXoRhEpQ,pool34
16,MS,medium,4,15.8161,0.8,FgaXoRhEpQ,pool34
16,MS,hard,5,22.0315,0.7142857142857143,FgaXoRhEpQ,pool34
1,MS,easy,3,9.7793,1,V4epNAqh9h,pool34
1,MS,medium,5,14.4333,1,V4epNAqh9h,pool34
1,MS,hard,4,11.5145,0.5714285714285714,V4epNAqh9h,pool34
2,MS,easy,3,7.7824,1,V4epNAqh9h,pool34
2,MS,medium,5,12.3695,1,V4epNAqh9h,pool34
2,MS,hard,3,11.1701,0.42857142857142855,V4epNAqh9h,pool34
3,MS,easy,3,8.7173,1,V4epNAqh9h,pool34
3,MS,medium,2,7.4666,0.4,V4epNAqh9h,pool34
3,MS,hard,4,12.5829,0.5714285714285714,V4epNAqh9h,pool34
4,MS,easy,3,8.3327,1,V4epNAqh9h,pool34
4,MS,medium,3,7.9987,0.6,V4epNAqh9h,pool34
4,MS,hard,2,6.5636,0.2857142857142857,V4epNAqh9h,pool34
5,MS,easy,3,11.7987,1,V4epNAqh9h,pool34
5,MS,medium,3,9.6644,0.6,V4epNAqh9h,pool34
5,MS,hard,2,10.3808,0.2857142857142857,V4epNAqh9h,pool34
6,MS,easy,3,6.8701,1,V4epNAqh9h,pool34
6,MS,medium,4,9.4523,0.8,V4epNAqh9h,pool34
6,MS,hard,4,9.7686,0.5714285714285714,V4epNAqh9h,pool34
7,MS,easy,3,8.1985,1,V4epNAqh9h,pool34
7,MS,medium,5,11.0462,1,V4epNAqh9h,pool34
7,MS,hard,6,22.014,0.8571428571428571,V4epNAqh9h,pool34
8,MS,easy,3,7.3323,1,V4epNAqh9h,pool34
8,MS,medium,2,7.7826,0.4,V4epNAqh9h,pool34
8,MS,hard,4,9.3026,0.5714285714285714,V4epNAqh9h,pool34
9,MS,easy,3,8.653,1,V4epNAqh9h,pool34
9,MS,medium,3,9.4344,0.6,V4epNAqh9h,pool34
9,MS,hard,3,8.8329,0.42857142857142855,V4epNAqh9h,pool34
10,MS,easy,3,9.4159,1,V4epNAqh9h,pool34
10,MS,medium,5,11.6657,1,V4epNAqh9h,pool34
10,MS,hard,3,10.5967,0.42857142857142855,V4epNAqh9h,pool34
11,MS,easy,3,8.032,1,V4epNAqh9h,pool34
11,MS,medium,5,14.1,1,V4epNAqh9h,pool34
11,MS,hard,2,6.9496,0.2857142857142857,V4epNAqh9h,pool34
12,MS,easy,3,10.7358,1,V4epNAqh9h,pool34
12,MS,medium,5,12.4983,1,V4epNAqh9h,pool34
12,MS,hard,3,8.2637,0.42857142857142855,V4epNAqh9h,pool34
13,MS,easy,3,12.7176,1,V4epNAqh9h,pool34
13,MS,medium,5,13.4483,1,V4epNAqh9h,pool34
13,MS,hard,4,11.9491,0.5714285714285714,V4epNAqh9h,pool34
14,MS,easy,3,8.4483,1,V4epNAqh9h,pool34
14,MS,medium,5,11.3293,1,V4epNAqh9h,pool34
14,MS,hard,4,13.4643,0.5714285714285714,V4epNAqh9h,pool34
15,MS,easy,3,10.6974,1,V4epNAqh9h,pool34
15,MS,medium,4,11.6968,0.8,V4epNAqh9h,pool34
15,MS,hard,5,13.7638,0.7142857142857143,V4epNAqh9h,pool34
16,MS,easy,3,8.0859,1,V4epNAqh9h,pool34
16,MS,medium,3,10.2972,0.6,V4epNAqh9h,pool34
16,MS,hard,4,10.2325,0.5714285714285714,V4epNAqh9h,pool34
1,MS,easy,3,13.8171,1,7s1EYKyluI,pool34
1,MS,medium,4,20.8608,0.8,7s1EYKyluI,pool34
1,MS,hard,1,25.1518,0.14285714285714285,7s1EYKyluI,pool34
2,MS,easy,3,16.9685,1,7s1EYKyluI,pool34
2,MS,medium,2,13.9623,0.4,7s1EYKyluI,pool34
2,MS,hard,1,9.2344,0.14285714285714285,7s1EYKyluI,pool34
3,MS,easy,3,10.9346,1,7s1EYKyluI,pool34
3,MS,medium,2,74.4269,0.4,7s1EYKyluI,pool34
3,MS,hard,1,18.5523,0.14285714285714285,7s1EYKyluI,pool34
4,MS,easy,3,10.351,1,7s1EYKyluI,pool34
4,MS,medium,3,20.8859,0.6,7s1EYKyluI,pool34
4,MS,hard,4,23.2864,0.5714285714285714,7s1EYKyluI,pool34
5,MS,easy,3,12.0516,1,7s1EYKyluI,pool34
5,MS,medium,3,82.8276,0.6,7s1EYKyluI,pool34
5,MS,hard,3,13.3681,0.42857142857142855,7s1EYKyluI,pool34
6,MS,easy,3,14.335,1,7s1EYKyluI,pool34
6,MS,medium,3,16.6181,0.6,7s1EYKyluI,pool34
6,MS,hard,3,13.5014,0.42857142857142855,7s1EYKyluI,pool34
7,MS,easy,3,11.3346,1,7s1EYKyluI,pool34
7,MS,medium,5,17.802,1,7s1EYKyluI,pool34
7,MS,hard,3,15.9446,0.42857142857142855,7s1EYKyluI,pool34
8,MS,easy,2,11.1845,0.6666666666666666,7s1EYKyluI,pool34
8,MS,medium,4,22.1027,0.8,7s1EYKyluI,pool34
8,MS,hard,3,13.7282,0.42857142857142855,7s1EYKyluI,pool34
9,MS,easy,3,12.9348,1,7s1EYKyluI,pool34
9,MS,medium,4,23.1695,0.8,7s1EYKyluI,pool34
9,MS,hard,5,21.3787,0.7142857142857143,7s1EYKyluI,pool34
10,MS,easy,3,12.0518,1,7s1EYKyluI,pool34
10,MS,medium,3,23.8693,0.6,7s1EYKyluI,pool34
10,MS,hard,4,16.2848,0.5714285714285714,7s1EYKyluI,pool34
11,MS,easy,3,11.2846,1,7s1EYKyluI,pool34
11,MS,medium,4,20.0689,0.8,7s1EYKyluI,pool34
11,MS,hard,4,19.0954,0.5714285714285714,7s1EYKyluI,pool34
12,MS,easy,3,13.6013,1,7s1EYKyluI,pool34
12,MS,medium,2,13.2182,0.4,7s1EYKyluI,pool34
12,MS,hard,4,17.945,0.5714285714285714,7s1EYKyluI,pool34
13,MS,easy,2,12.2846,0.6666666666666666,7s1EYKyluI,pool34
13,MS,medium,3,15.2684,0.6,7s1EYKyluI,pool34
13,MS,hard,4,27.2626,0.5714285714285714,7s1EYKyluI,pool34
14,MS,easy,3,10.048,1,7s1EYKyluI,pool34
14,MS,medium,5,20.9524,1,7s1EYKyluI,pool34
14,MS,hard,0,160.524,0,7s1EYKyluI,pool34
15,MS,easy,3,11.8895,1,7s1EYKyluI,pool34
15,MS,medium,2,10.5843,0.4,7s1EYKyluI,pool34
15,MS,hard,5,19.319,0.7142857142857143,7s1EYKyluI,pool34
16,MS,easy,3,11.701,1,7s1EYKyluI,pool34
16,MS,medium,2,10.8177,0.4,7s1EYKyluI,pool34
16,MS,hard,4,16.6517,0.5714285714285714,7s1EYKyluI,pool34
1,MS,easy,3,10.1341,1,GxpGXkXK8v,pool34
1,MS,medium,3,16.5232,0.6,GxpGXkXK8v,pool34
1,MS,hard,3,10.7575,0.42857142857142855,GxpGXkXK8v,pool34
2,MS,easy,3,11.8214,1,GxpGXkXK8v,pool34
2,MS,medium,3,32.7606,0.6,GxpGXkXK8v,pool34
2,MS,hard,2,15.1835,0.2857142857142857,GxpGXkXK8v,pool34
3,MS,easy,3,9.5636,1,GxpGXkXK8v,pool34
3,MS,medium,5,16.5576,1,GxpGXkXK8v,pool34
3,MS,hard,4,17.2055,0.5714285714285714,GxpGXkXK8v,pool34
4,MS,easy,3,9.0237,1,GxpGXkXK8v,pool34
4,MS,medium,3,17.1577,0.6,GxpGXkXK8v,pool34
4,MS,hard,4,13.2159,0.5714285714285714,GxpGXkXK8v,pool34
5,MS,easy,2,14.2187,0.6666666666666666,GxpGXkXK8v,pool34
5,MS,medium,5,19.896,1,GxpGXkXK8v,pool34
5,MS,hard,3,17.4409,0.42857142857142855,GxpGXkXK8v,pool34
6,MS,easy,3,9.8575,1,GxpGXkXK8v,pool34
6,MS,medium,4,22.5743,0.8,GxpGXkXK8v,pool34
6,MS,hard,3,14.6659,0.42857142857142855,GxpGXkXK8v,pool34
7,MS,easy,3,9.9253,1,GxpGXkXK8v,pool34
7,MS,medium,4,32.0165,0.8,GxpGXkXK8v,pool34
7,MS,hard,3,9.2652,0.42857142857142855,GxpGXkXK8v,pool34
8,MS,easy,3,9.6862,1,GxpGXkXK8v,pool34
8,MS,medium,4,16.1741,0.8,GxpGXkXK8v,pool34
8,MS,hard,2,13.4799,0.2857142857142857,GxpGXkXK8v,pool34
9,MS,easy,0,0.0016,0,GxpGXkXK8v,pool34
9,MS,medium,3,22.4188,0.6,GxpGXkXK8v,pool34
9,MS,hard,3,10.9151,0.42857142857142855,GxpGXkXK8v,pool34
10,MS,easy,0,0.0016,0,GxpGXkXK8v,pool34
10,MS,medium,5,23.7598,1,GxpGXkXK8v,pool34
10,MS,hard,1,10.2024,0.14285714285714285,GxpGXkXK8v,pool34
11,MS,easy,2,8.6411,0.6666666666666666,GxpGXkXK8v,pool34
11,MS,medium,3,11.5113,0.6,GxpGXkXK8v,pool34
11,MS,hard,4,18.2577,0.5714285714285714,GxpGXkXK8v,pool34
12,MS,easy,2,11.2609,0.6666666666666666,GxpGXkXK8v,pool34
12,MS,medium,2,26.3486,0.4,GxpGXkXK8v,pool34
12,MS,hard,2,8.6913,0.2857142857142857,GxpGXkXK8v,pool34
13,MS,easy,3,10.6591,1,GxpGXkXK8v,pool34
13,MS,medium,5,16.5613,1,GxpGXkXK8v,pool34
13,MS,hard,3,16.3839,0.42857142857142855,GxpGXkXK8v,pool34
14,MS,easy,3,9.852,1,GxpGXkXK8v,pool34
14,MS,medium,4,14.8351,0.8,GxpGXkXK8v,pool34
14,MS,hard,1,9.7941,0.14285714285714285,GxpGXkXK8v,pool34
15,MS,easy,3,10.9378,1,GxpGXkXK8v,pool34
15,MS,medium,4,16.0296,0.8,GxpGXkXK8v,pool34
15,MS,hard,3,10.9904,0.42857142857142855,GxpGXkXK8v,pool34
16,MS,easy,3,9.2885,1,GxpGXkXK8v,pool34
16,MS,medium,2,12.2238,0.4,GxpGXkXK8v,pool34
16,MS,hard,3,10.6104,0.42857142857142855,GxpGXkXK8v,pool34
1,MS,easy,3,17.8832,1,W98TU3XJxb,pool34
1,MS,medium,5,13.033,1,W98TU3XJxb,pool34
1,MS,hard,5,13.6368,0.7142857142857143,W98TU3XJxb,pool34
2,MS,easy,3,9.1993,1,W98TU3XJxb,pool34
2,MS,medium,5,13.5672,1,W98TU3XJxb,pool34
2,MS,hard,3,13.3006,0.42857142857142855,W98TU3XJxb,pool34
3,MS,easy,3,9.2657,1,W98TU3XJxb,pool34
3,MS,medium,5,13.7339,1,W98TU3XJxb,pool34
3,MS,hard,4,14.7326,0.5714285714285714,W98TU3XJxb,pool34
4,MS,easy,3,8.3994,1,W98TU3XJxb,pool34
4,MS,medium,4,20.8314,0.8,W98TU3XJxb,pool34
4,MS,hard,4,11.6303,0.5714285714285714,W98TU3XJxb,pool34
5,MS,easy,3,15.4316,1,W98TU3XJxb,pool34
5,MS,medium,4,34.9705,0.8,W98TU3XJxb,pool34
5,MS,hard,5,19.0993,0.7142857142857143,W98TU3XJxb,pool34
6,MS,easy,3,7.1301,1,W98TU3XJxb,pool34
6,MS,medium,5,12.3641,1,W98TU3XJxb,pool34
6,MS,hard,3,21.0331,0.42857142857142855,W98TU3XJxb,pool34
7,MS,easy,3,9.3219,1,W98TU3XJxb,pool34
7,MS,medium,5,17.2345,1,W98TU3XJxb,pool34
7,MS,hard,4,12.7976,0.5714285714285714,W98TU3XJxb,pool34
8,MS,easy,3,7.7404,1,W98TU3XJxb,pool34
8,MS,medium,4,16.2656,0.8,W98TU3XJxb,pool34
8,MS,hard,5,14.2328,0.7142857142857143,W98TU3XJxb,pool34
9,MS,easy,3,9.1997,1,W98TU3XJxb,pool34
9,MS,medium,5,16.6319,1,W98TU3XJxb,pool34
9,MS,hard,3,17.7972,0.42857142857142855,W98TU3XJxb,pool34
10,MS,easy,3,7.2743,1,W98TU3XJxb,pool34
10,MS,medium,5,25.8298,1,W98TU3XJxb,pool34
10,MS,hard,5,15.6321,0.7142857142857143,W98TU3XJxb,pool34
11,MS,easy,3,8.7345,1,W98TU3XJxb,pool34
11,MS,medium,5,12.6369,1,W98TU3XJxb,pool34
11,MS,hard,5,21.2648,0.7142857142857143,W98TU3XJxb,pool34
12,MS,easy,3,7.6291,1,W98TU3XJxb,pool34
12,MS,medium,4,11.6659,0.8,W98TU3XJxb,pool34
12,MS,hard,5,13.3639,0.7142857142857143,W98TU3XJxb,pool34
13,MS,easy,2,15.7028,0.6666666666666666,W98TU3XJxb,pool34
13,MS,medium,3,28.7316,0.6,W98TU3XJxb,pool34
13,MS,hard,5,25.233,0.7142857142857143,W98TU3XJxb,pool34
14,MS,easy,3,8.0946,1,W98TU3XJxb,pool34
14,MS,medium,5,13.6997,1,W98TU3XJxb,pool34
14,MS,hard,6,17.9322,0.8571428571428571,W98TU3XJxb,pool34
15,MS,easy,3,13.0346,1,W98TU3XJxb,pool34
15,MS,medium,5,10.8676,1,W98TU3XJxb,pool34
15,MS,hard,5,23.6886,0.7142857142857143,W98TU3XJxb,pool34
16,MS,easy,3,7.9337,1,W98TU3XJxb,pool34
16,MS,medium,5,13.2322,1,W98TU3XJxb,pool34
16,MS,hard,6,13.1641,0.8571428571428571,W98TU3XJxb,pool34
1,MS,easy,3,8.4711,1,yWB1eDgHxE,pool34
1,MS,medium,5,16.3272,1,yWB1eDgHxE,pool34
1,MS,hard,7,39.0945,1,yWB1eDgHxE,pool34
2,MS,easy,3,13.6763,1,yWB1eDgHxE,pool34
2,MS,medium,5,23.8889,1,yWB1eDgHxE,pool34
2,MS,hard,6,55.6119,0.8571428571428571,yWB1eDgHxE,pool34
3,MS,easy,2,11.1579,0.6666666666666666,yWB1eDgHxE,pool34
3,MS,medium,5,17.0674,1,yWB1eDgHxE,pool34
3,MS,hard,7,26.8076,1,yWB1eDgHxE,pool34
4,MS,easy,3,9.2397,1,yWB1eDgHxE,pool34
4,MS,medium,5,12.2586,1,yWB1eDgHxE,pool34
4,MS,hard,7,30.1425,1,yWB1eDgHxE,pool34
5,MS,easy,3,9.1567,1,yWB1eDgHxE,pool34
5,MS,medium,5,11.7358,1,yWB1eDgHxE,pool34
5,MS,hard,7,32.8571,1,yWB1eDgHxE,pool34
6,MS,easy,3,17.9128,1,yWB1eDgHxE,pool34
6,MS,medium,5,12.1252,1,yWB1eDgHxE,pool34
6,MS,hard,7,29.5891,1,yWB1eDgHxE,pool34
7,MS,easy,2,10.0903,0.6666666666666666,yWB1eDgHxE,pool34
7,MS,medium,5,13.5093,1,yWB1eDgHxE,pool34
7,MS,hard,7,42.4522,1,yWB1eDgHxE,pool34
8,MS,easy,3,10.5741,1,yWB1eDgHxE,pool34
8,MS,medium,5,32.5897,1,yWB1eDgHxE,pool34
8,MS,hard,7,30.4888,1,yWB1eDgHxE,pool34
9,MS,easy,3,9.5402,1,yWB1eDgHxE,pool34
9,MS,medium,5,19.0848,1,yWB1eDgHxE,pool34
9,MS,hard,7,30.7885,1,yWB1eDgHxE,pool34
10,MS,easy,3,65.5132,1,yWB1eDgHxE,pool34
10,MS,medium,5,12.1588,1,yWB1eDgHxE,pool34
10,MS,hard,7,36.3643,1,yWB1eDgHxE,pool34
11,MS,easy,3,9.6234,1,yWB1eDgHxE,pool34
11,MS,medium,4,26.1023,0.8,yWB1eDgHxE,pool34
11,MS,hard,7,25.7359,1,yWB1eDgHxE,pool34
12,MS,easy,3,9.9403,1,yWB1eDgHxE,pool34
12,MS,medium,5,18.3955,1,yWB1eDgHxE,pool34
12,MS,hard,7,34.7413,1,yWB1eDgHxE,pool34
13,MS,easy,3,9.2565,1,yWB1eDgHxE,pool34
13,MS,medium,4,32.1063,0.8,yWB1eDgHxE,pool34
13,MS,hard,7,36.3143,1,yWB1eDgHxE,pool34
14,MS,easy,3,12.692,1,yWB1eDgHxE,pool34
14,MS,medium,5,25.7516,1,yWB1eDgHxE,pool34
14,MS,hard,7,28.4541,1,yWB1eDgHxE,pool34
15,MS,easy,3,8.5729,1,yWB1eDgHxE,pool34
15,MS,medium,5,22.0155,1,yWB1eDgHxE,pool34
15,MS,hard,7,32.2075,1,yWB1eDgHxE,pool34
16,MS,easy,3,7.655,1,yWB1eDgHxE,pool34
16,MS,medium,5,20.8971,1,yWB1eDgHxE,pool34
16,MS,hard,7,32.6904,1,yWB1eDgHxE,pool34
1,MS,easy,3,9.4165,1,cdCa7qlKqK,pool34
1,MS,medium,5,14.4116,1,cdCa7qlKqK,pool34
1,MS,hard,6,19.0974,0.8571428571428571,cdCa7qlKqK,pool34
2,MS,easy,3,10.6583,1,cdCa7qlKqK,pool34
2,MS,medium,5,17.4631,1,cdCa7qlKqK,pool34
2,MS,hard,4,24.2857,0.5714285714285714,cdCa7qlKqK,pool34
3,MS,easy,3,9.1607,1,cdCa7qlKqK,pool34
3,MS,medium,5,16.9493,1,cdCa7qlKqK,pool34
3,MS,hard,4,27.5184,0.5714285714285714,cdCa7qlKqK,pool34
4,MS,easy,3,11.1356,1,cdCa7qlKqK,pool34
4,MS,medium,4,23.456,0.8,cdCa7qlKqK,pool34
4,MS,hard,5,25.5006,0.7142857142857143,cdCa7qlKqK,pool34
5,MS,easy,3,9.1468,1,cdCa7qlKqK,pool34
5,MS,medium,5,17.4174,1,cdCa7qlKqK,pool34
5,MS,hard,5,23.7537,0.7142857142857143,cdCa7qlKqK,pool34
6,MS,easy,3,9.6867,1,cdCa7qlKqK,pool34
6,MS,medium,4,19.9241,0.8,cdCa7qlKqK,pool34
6,MS,hard,5,25.729,0.7142857142857143,cdCa7qlKqK,pool34
7,MS,easy,3,10.202,1,cdCa7qlKqK,pool34
7,MS,medium,5,21.918,1,cdCa7qlKqK,pool34
7,MS,hard,7,22.3094,1,cdCa7qlKqK,pool34
8,MS,easy,3,10.1019,1,cdCa7qlKqK,pool34
8,MS,medium,5,15.9001,1,cdCa7qlKqK,pool34
8,MS,hard,6,25.6544,0.8571428571428571,cdCa7qlKqK,pool34
9,MS,easy,3,10.9797,1,cdCa7qlKqK,pool34
9,MS,medium,5,20.9058,1,cdCa7qlKqK,pool34
9,MS,hard,6,24.197,0.8571428571428571,cdCa7qlKqK,pool34
10,MS,easy,3,9.7221,1,cdCa7qlKqK,pool34
10,MS,medium,5,18.0467,1,cdCa7qlKqK,pool34
10,MS,hard,5,22.904,0.7142857142857143,cdCa7qlKqK,pool34
11,MS,easy,3,8.8867,1,cdCa7qlKqK,pool34
11,MS,medium,5,16.2256,1,cdCa7qlKqK,pool34
11,MS,hard,5,18.4687,0.7142857142857143,cdCa7qlKqK,pool34
12,MS,easy,3,11.164,1,cdCa7qlKqK,pool34
12,MS,medium,5,22.0969,1,cdCa7qlKqK,pool34
12,MS,hard,5,21.0582,0.7142857142857143,cdCa7qlKqK,pool34
13,MS,easy,3,10.8394,1,cdCa7qlKqK,pool34
13,MS,medium,5,22.8876,1,cdCa7qlKqK,pool34
13,MS,hard,6,26.9324,0.8571428571428571,cdCa7qlKqK,pool34
14,MS,easy,3,8.1297,1,cdCa7qlKqK,pool34
14,MS,medium,5,19.0902,1,cdCa7qlKqK,pool34
14,MS,hard,4,17.3946,0.5714285714285714,cdCa7qlKqK,pool34
15,MS,easy,3,7.9851,1,cdCa7qlKqK,pool34
15,MS,medium,5,16.4691,1,cdCa7qlKqK,pool34
15,MS,hard,5,29.451,0.7142857142857143,cdCa7qlKqK,pool34
16,MS,easy,3,9.3679,1,cdCa7qlKqK,pool34
16,MS,medium,5,17.0327,1,cdCa7qlKqK,pool34
16,MS,hard,5,23.9501,0.7142857142857143,cdCa7qlKqK,pool34
1,MS,easy,3,9.4994,1,0dkwUmCwzJ,pool34
1,MS,medium,5,58.5723,1,0dkwUmCwzJ,pool34
1,MS,hard,5,19.7162,0.7142857142857143,0dkwUmCwzJ,pool34
2,MS,easy,3,10.1551,1,0dkwUmCwzJ,pool34
2,MS,medium,5,15.7671,1,0dkwUmCwzJ,pool34
2,MS,hard,5,24.6338,0.7142857142857143,0dkwUmCwzJ,pool34
3,MS,easy,3,7.6886,1,0dkwUmCwzJ,pool34
3,MS,medium,5,11.8384,1,0dkwUmCwzJ,pool34
3,MS,hard,6,32.4839,0.8571428571428571,0dkwUmCwzJ,pool34
4,MS,easy,3,7.3884,1,0dkwUmCwzJ,pool34
4,MS,medium,5,12.7171,1,0dkwUmCwzJ,pool34
4,MS,hard,5,28.4504,0.7142857142857143,0dkwUmCwzJ,pool34
5,MS,easy,3,7.9967,1,0dkwUmCwzJ,pool34
5,MS,medium,5,11.2004,1,0dkwUmCwzJ,pool34
5,MS,hard,5,21.9502,0.7142857142857143,0dkwUmCwzJ,pool34
6,MS,easy,2,8.7219,0.6666666666666666,0dkwUmCwzJ,pool34
6,MS,medium,5,11.1218,1,0dkwUmCwzJ,pool34
6,MS,hard,4,14.9,0.5714285714285714,0dkwUmCwzJ,pool34
7,MS,easy,3,8.4669,1,0dkwUmCwzJ,pool34
7,MS,medium,5,12.4668,1,0dkwUmCwzJ,pool34
7,MS,hard,5,16.6168,0.7142857142857143,0dkwUmCwzJ,pool34
8,MS,easy,3,7.417,1,0dkwUmCwzJ,pool34
8,MS,medium,5,12.0834,1,0dkwUmCwzJ,pool34
8,MS,hard,4,13.2668,0.5714285714285714,0dkwUmCwzJ,pool34
9,MS,easy,3,5.9166,1,0dkwUmCwzJ,pool34
9,MS,medium,5,10.7334,1,0dkwUmCwzJ,pool34
9,MS,hard,4,14.8668,0.5714285714285714,0dkwUmCwzJ,pool34
10,MS,easy,3,7.2499,1,0dkwUmCwzJ,pool34
10,MS,medium,5,16.1002,1,0dkwUmCwzJ,pool34
10,MS,hard,4,12.9334,0.5714285714285714,0dkwUmCwzJ,pool34
11,MS,easy,3,7.5674,1,0dkwUmCwzJ,pool34
11,MS,medium,5,17.4502,1,0dkwUmCwzJ,pool34
11,MS,hard,6,15.1551,0.8571428571428571,0dkwUmCwzJ,pool34
12,MS,easy,3,6.9501,1,0dkwUmCwzJ,pool34
12,MS,medium,5,31.0673,1,0dkwUmCwzJ,pool34
12,MS,hard,5,15.6336,0.7142857142857143,0dkwUmCwzJ,pool34
13,MS,easy,3,7.4002,1,0dkwUmCwzJ,pool34
13,MS,medium,4,12.2001,0.8,0dkwUmCwzJ,pool34
13,MS,hard,4,13.2,0.5714285714285714,0dkwUmCwzJ,pool34
14,MS,easy,3,8.2501,1,0dkwUmCwzJ,pool34
14,MS,medium,5,14.5335,1,0dkwUmCwzJ,pool34
14,MS,hard,4,15.0502,0.5714285714285714,0dkwUmCwzJ,pool34
15,MS,easy,2,12.4668,0.6666666666666666,0dkwUmCwzJ,pool34
15,MS,medium,5,18.8169,1,0dkwUmCwzJ,pool34
15,MS,hard,5,12.4501,0.7142857142857143,0dkwUmCwzJ,pool34
16,MS,easy,3,8.1834,1,0dkwUmCwzJ,pool34
16,MS,medium,5,11.5335,1,0dkwUmCwzJ,pool34
16,MS,hard,6,20.7336,0.8571428571428571,0dkwUmCwzJ,pool34
1,MS,easy,3,32.9612,1,h3qLkF1oCE,pool34
1,MS,medium,5,22.9802,1,h3qLkF1oCE,pool34
1,MS,hard,7,25.5381,1,h3qLkF1oCE,pool34
2,MS,easy,2,21.8153,0.6666666666666666,h3qLkF1oCE,pool34
2,MS,medium,5,23.9479,1,h3qLkF1oCE,pool34
2,MS,hard,7,27.6811,1,h3qLkF1oCE,pool34
3,MS,easy,3,9.599,1,h3qLkF1oCE,pool34
3,MS,medium,5,16.3325,1,h3qLkF1oCE,pool34
3,MS,hard,7,25.1971,1,h3qLkF1oCE,pool34
4,MS,easy,2,14.6987,0.6666666666666666,h3qLkF1oCE,pool34
4,MS,medium,5,26.2309,1,h3qLkF1oCE,pool34
4,MS,hard,7,28.6301,1,h3qLkF1oCE,pool34
5,MS,easy,3,7.899,1,h3qLkF1oCE,pool34
5,MS,medium,5,21.3982,1,h3qLkF1oCE,pool34
5,MS,hard,7,31.8974,1,h3qLkF1oCE,pool34
6,MS,easy,3,9.1148,1,h3qLkF1oCE,pool34
6,MS,medium,5,20.5482,1,h3qLkF1oCE,pool34
6,MS,hard,7,41.13,1,h3qLkF1oCE,pool34
7,MS,easy,3,9.8989,1,h3qLkF1oCE,pool34
7,MS,medium,5,20.4982,1,h3qLkF1oCE,pool34
7,MS,hard,7,29.1314,1,h3qLkF1oCE,pool34
8,MS,easy,3,9.6823,1,h3qLkF1oCE,pool34
8,MS,medium,5,18.9148,1,h3qLkF1oCE,pool34
8,MS,hard,7,26.8974,1,h3qLkF1oCE,pool34
9,MS,easy,3,8.7321,1,h3qLkF1oCE,pool34
9,MS,medium,5,22.1651,1,h3qLkF1oCE,pool34
9,MS,hard,7,41.1798,1,h3qLkF1oCE,pool34
10,MS,easy,3,10.0824,1,h3qLkF1oCE,pool34
10,MS,medium,5,21.8146,1,h3qLkF1oCE,pool34
10,MS,hard,7,26.1641,1,h3qLkF1oCE,pool34
11,MS,easy,3,8.6321,1,h3qLkF1oCE,pool34
11,MS,medium,5,23.5651,1,h3qLkF1oCE,pool34
11,MS,hard,7,35.5134,1,h3qLkF1oCE,pool34
12,MS,easy,3,8.7662,1,h3qLkF1oCE,pool34
12,MS,medium,5,19.1816,1,h3qLkF1oCE,pool34
12,MS,hard,7,31.7303,1,h3qLkF1oCE,pool34
13,MS,easy,3,9.8155,1,h3qLkF1oCE,pool34
13,MS,medium,5,25.8476,1,h3qLkF1oCE,pool34
13,MS,hard,7,30.3137,1,h3qLkF1oCE,pool34
14,MS,easy,3,10.7153,1,h3qLkF1oCE,pool34
14,MS,medium,5,21.8315,1,h3qLkF1oCE,pool34
14,MS,hard,7,27.4974,1,h3qLkF1oCE,pool34
15,MS,easy,3,8.6987,1,h3qLkF1oCE,pool34
15,MS,medium,5,17.9147,1,h3qLkF1oCE,pool34
15,MS,hard,7,24.2975,1,h3qLkF1oCE,pool34
16,MS,easy,3,13.0313,1,h3qLkF1oCE,pool34
16,MS,medium,5,21.2145,1,h3qLkF1oCE,pool34
16,MS,hard,7,34.2635,1,h3qLkF1oCE,pool34
1,MS,easy,3,13.9984,1,Q479YcpCNr,pool34
1,MS,medium,5,16.4967,1,Q479YcpCNr,pool34
1,MS,hard,6,18.5594,0.8571428571428571,Q479YcpCNr,pool34
2,MS,easy,3,10.516,1,Q479YcpCNr,pool34
2,MS,medium,5,16.4992,1,Q479YcpCNr,pool34
2,MS,hard,6,18.9321,0.8571428571428571,Q479YcpCNr,pool34
3,MS,easy,3,9.416,1,Q479YcpCNr,pool34
3,MS,medium,5,15.6829,1,Q479YcpCNr,pool34
3,MS,hard,7,18.9493,1,Q479YcpCNr,pool34
4,MS,easy,3,13.9663,1,Q479YcpCNr,pool34
4,MS,medium,5,14.0328,1,Q479YcpCNr,pool34
4,MS,hard,7,18.7159,1,Q479YcpCNr,pool34
5,MS,easy,3,8.1499,1,Q479YcpCNr,pool34
5,MS,medium,5,15.3322,1,Q479YcpCNr,pool34
5,MS,hard,7,22.3169,1,Q479YcpCNr,pool34
6,MS,easy,3,10.8662,1,Q479YcpCNr,pool34
6,MS,medium,5,14.0886,1,Q479YcpCNr,pool34
6,MS,hard,6,15.4496,0.8571428571428571,Q479YcpCNr,pool34
7,MS,easy,3,9.7497,1,Q479YcpCNr,pool34
7,MS,medium,5,13.5337,1,Q479YcpCNr,pool34
7,MS,hard,5,17.6328,0.7142857142857143,Q479YcpCNr,pool34
8,MS,easy,3,9.4665,1,Q479YcpCNr,pool34
8,MS,medium,5,16.5669,1,Q479YcpCNr,pool34
8,MS,hard,3,11.0663,0.42857142857142855,Q479YcpCNr,pool34
9,MS,easy,3,7.4828,1,Q479YcpCNr,pool34
9,MS,medium,5,15.4272,1,Q479YcpCNr,pool34
9,MS,hard,5,15.6497,0.7142857142857143,Q479YcpCNr,pool34
10,MS,easy,3,8.7329,1,Q479YcpCNr,pool34
10,MS,medium,5,13.8498,1,Q479YcpCNr,pool34
10,MS,hard,6,22.8993,0.8571428571428571,Q479YcpCNr,pool34
11,MS,easy,3,9.8495,1,Q479YcpCNr,pool34
11,MS,medium,5,13.7997,1,Q479YcpCNr,pool34
11,MS,hard,6,18.6328,0.8571428571428571,Q479YcpCNr,pool34
12,MS,easy,3,8.5999,1,Q479YcpCNr,pool34
12,MS,medium,5,13.9837,1,Q479YcpCNr,pool34
12,MS,hard,6,31.0663,0.8571428571428571,Q479YcpCNr,pool34
13,MS,easy,3,9.8662,1,Q479YcpCNr,pool34
13,MS,medium,5,14.7671,1,Q479YcpCNr,pool34
13,MS,hard,5,18.5336,0.7142857142857143,Q479YcpCNr,pool34
14,MS,easy,3,10.217,1,Q479YcpCNr,pool34
14,MS,medium,5,12.767,1,Q479YcpCNr,pool34
14,MS,hard,6,26.7498,0.8571428571428571,Q479YcpCNr,pool34
15,MS,easy,3,7.6492000000000004,1,Q479YcpCNr,pool34
15,MS,medium,5,13.4831,1,Q479YcpCNr,pool34
15,MS,hard,6,17.2996,0.8571428571428571,Q479YcpCNr,pool34
16,MS,easy,3,8.7486,1,Q479YcpCNr,pool34
16,MS,medium,5,13.5169,1,Q479YcpCNr,pool34
16,MS,hard,3,20.7499,0.42857142857142855,Q479YcpCNr,pool34
1,MS,easy,3,9.647,1,vBoSbHJ7AD,pool34
1,MS,medium,5,10.864,1,vBoSbHJ7AD,pool34
1,MS,hard,5,15.88,0.7142857142857143,vBoSbHJ7AD,pool34
2,MS,easy,3,9.682,1,vBoSbHJ7AD,pool34
2,MS,medium,5,14.348,1,vBoSbHJ7AD,pool34
2,MS,hard,5,13.293,0.7142857142857143,vBoSbHJ7AD,pool34
3,MS,easy,3,11.397,1,vBoSbHJ7AD,pool34
3,MS,medium,5,9.765,1,vBoSbHJ7AD,pool34
3,MS,hard,4,14.147,0.5714285714285714,vBoSbHJ7AD,pool34
4,MS,easy,3,9.449,1,vBoSbHJ7AD,pool34
4,MS,medium,5,12.448,1,vBoSbHJ7AD,pool34
4,MS,hard,5,13.114,0.7142857142857143,vBoSbHJ7AD,pool34
5,MS,easy,3,8.199,1,vBoSbHJ7AD,pool34
5,MS,medium,4,12.933,0.8,vBoSbHJ7AD,pool34
5,MS,hard,4,12.965,0.5714285714285714,vBoSbHJ7AD,pool34
6,MS,easy,3,9.215,1,vBoSbHJ7AD,pool34
6,MS,medium,3,12.447,0.6,vBoSbHJ7AD,pool34
6,MS,hard,5,12.333,0.7142857142857143,vBoSbHJ7AD,pool34
7,MS,easy,3,7.298,1,vBoSbHJ7AD,pool34
7,MS,medium,5,11.849,1,vBoSbHJ7AD,pool34
7,MS,hard,4,8.565,0.5714285714285714,vBoSbHJ7AD,pool34
8,MS,easy,3,7.899,1,vBoSbHJ7AD,pool34
8,MS,medium,5,11.334,1,vBoSbHJ7AD,pool34
8,MS,hard,4,13.631,0.5714285714285714,vBoSbHJ7AD,pool34
9,MS,easy,3,7.181,1,vBoSbHJ7AD,pool34
9,MS,medium,4,25.53,0.8,vBoSbHJ7AD,pool34
9,MS,hard,3,15.031,0.42857142857142855,vBoSbHJ7AD,pool34
10,MS,easy,3,7.732,1,vBoSbHJ7AD,pool34
10,MS,medium,5,18.182,1,vBoSbHJ7AD,pool34
10,MS,hard,1,7.3,0.14285714285714285,vBoSbHJ7AD,pool34
11,MS,easy,3,10.249,1,vBoSbHJ7AD,pool34
11,MS,medium,4,11.866,0.8,vBoSbHJ7AD,pool34
11,MS,hard,4,12.231,0.5714285714285714,vBoSbHJ7AD,pool34
12,MS,easy,3,7.867,1,vBoSbHJ7AD,pool34
12,MS,medium,5,56.483,1,vBoSbHJ7AD,pool34
12,MS,hard,5,16.697,0.7142857142857143,vBoSbHJ7AD,pool34
13,MS,easy,3,6.548,1,vBoSbHJ7AD,pool34
13,MS,medium,5,12.465,1,vBoSbHJ7AD,pool34
13,MS,hard,5,13.764,0.7142857142857143,vBoSbHJ7AD,pool34
14,MS,easy,3,6.131,1,vBoSbHJ7AD,pool34
14,MS,medium,5,10.047,1,vBoSbHJ7AD,pool34
14,MS,hard,4,11.032,0.5714285714285714,vBoSbHJ7AD,pool34
15,MS,easy,3,8.233,1,vBoSbHJ7AD,pool34
15,MS,medium,4,17.348,0.8,vBoSbHJ7AD,pool34
15,MS,hard,5,9.698,0.7142857142857143,vBoSbHJ7AD,pool34
16,MS,easy,3,9.083,1,vBoSbHJ7AD,pool34
16,MS,medium,5,12.03,1,vBoSbHJ7AD,pool34
16,MS,hard,4,15.385,0.5714285714285714,vBoSbHJ7AD,pool34
1,MS,easy,3,19.9706,1,JIY5GSm8aI,pool34
1,MS,medium,4,63.015,0.8,JIY5GSm8aI,pool34
1,MS,hard,7,64.3569,1,JIY5GSm8aI,pool34
2,MS,easy,3,13.6485,1,JIY5GSm8aI,pool34
