trials,task,level,n,rt,acc,id
1,MS,easy,3,NA,1,3hMsm8I7aY
1,MS,medium,4,NA,0.8,3hMsm8I7aY
1,MS,hard,4,NA,0.5714285714285714,3hMsm8I7aY
2,MS,easy,3,NA,1,3hMsm8I7aY
2,MS,medium,5,NA,1,3hMsm8I7aY
2,MS,hard,5,NA,0.7142857142857143,3hMsm8I7aY
3,MS,easy,3,NA,1,3hMsm8I7aY
3,MS,medium,5,NA,1,3hMsm8I7aY
3,MS,hard,7,NA,1,3hMsm8I7aY
4,MS,easy,3,NA,1,3hMsm8I7aY
4,MS,medium,5,NA,1,3hMsm8I7aY
4,MS,hard,7,NA,1,3hMsm8I7aY
5,MS,easy,2,NA,0.6666666666666666,3hMsm8I7aY
5,MS,medium,5,NA,1,3hMsm8I7aY
5,MS,hard,5,NA,0.7142857142857143,3hMsm8I7aY
6,MS,easy,3,NA,1,3hMsm8I7aY
6,MS,medium,5,NA,1,3hMsm8I7aY
6,MS,hard,6,NA,0.8571428571428571,3hMsm8I7aY
7,MS,easy,3,NA,1,3hMsm8I7aY
7,MS,medium,5,NA,1,3hMsm8I7aY
7,MS,hard,6,NA,0.8571428571428571,3hMsm8I7aY
8,MS,easy,3,NA,1,3hMsm8I7aY
8,MS,medium,5,NA,1,3hMsm8I7aY
8,MS,hard,7,NA,1,3hMsm8I7aY
9,MS,easy,3,NA,1,3hMsm8I7aY
9,MS,medium,5,NA,1,3hMsm8I7aY
9,MS,hard,5,NA,0.7142857142857143,3hMsm8I7aY
10,MS,easy,3,NA,1,3hMsm8I7aY
10,MS,medium,5,NA,1,3hMsm8I7aY
10,MS,hard,6,NA,0.8571428571428571,3hMsm8I7aY
11,MS,easy,2,NA,0.6666666666666666,3hMsm8I7aY
11,MS,medium,5,NA,1,3hMsm8I7aY
11,MS,hard,4,NA,0.5714285714285714,3hMsm8I7aY
12,MS,easy,2,NA,0.6666666666666666,3hMsm8I7aY
12,MS,medium,5,NA,1,3hMsm8I7aY
12,MS,hard,7,NA,1,3hMsm8I7aY
13,MS,easy,3,NA,1,3hMsm8I7aY
13,MS,medium,5,NA,1,3hMsm8I7aY
13,MS,hard,4,NA,0.5714285714285714,3hMsm8I7aY
14,MS,easy,3,NA,1,3hMsm8I7aY
14,MS,medium,5,NA,1,3hMsm8I7aY
14,MS,hard,7,NA,1,3hMsm8I7aY
15,MS,easy,0,NA,0,3hMsm8I7aY
15,MS,medium,5,NA,1,3hMsm8I7aY
15,MS,hard,7,NA,1,3hMsm8I7aY
16,MS,easy,3,NA,1,3hMsm8I7aY
16,MS,medium,5,NA,1,3hMsm8I7aY
16,MS,hard,7,NA,1,3hMsm8I7aY
1,MS,easy,3,NA,1,TM72GyUTkf
1,MS,medium,4,NA,0.8,TM72GyUTkf
1,MS,hard,5,NA,0.7142857142857143,TM72GyUTkf
2,MS,easy,3,NA,1,TM72GyUTkf
2,MS,medium,5,NA,1,TM72GyUTkf
2,MS,hard,5,NA,0.7142857142857143,TM72GyUTkf
3,MS,easy,3,NA,1,TM72GyUTkf
3,MS,medium,4,NA,0.8,TM72GyUTkf
3,MS,hard,4,NA,0.5714285714285714,TM72GyUTkf
4,MS,easy,3,NA,1,TM72GyUTkf
4,MS,medium,3,NA,0.6,TM72GyUTkf
4,MS,hard,2,NA,0.2857142857142857,TM72GyUTkf
5,MS,easy,3,NA,1,TM72GyUTkf
5,MS,medium,4,NA,0.8,TM72GyUTkf
5,MS,hard,5,NA,0.7142857142857143,TM72GyUTkf
6,MS,easy,3,NA,1,TM72GyUTkf
6,MS,medium,4,NA,0.8,TM72GyUTkf
6,MS,hard,3,NA,0.42857142857142855,TM72GyUTkf
7,MS,easy,3,NA,1,TM72GyUTkf
7,MS,medium,5,NA,1,TM72GyUTkf
7,MS,hard,3,NA,0.42857142857142855,TM72GyUTkf
8,MS,easy,3,NA,1,TM72GyUTkf
8,MS,medium,5,NA,1,TM72GyUTkf
8,MS,hard,3,NA,0.42857142857142855,TM72GyUTkf
9,MS,easy,3,NA,1,TM72GyUTkf
9,MS,medium,4,NA,0.8,TM72GyUTkf
9,MS,hard,4,NA,0.5714285714285714,TM72GyUTkf
10,MS,easy,3,NA,1,TM72GyUTkf
10,MS,medium,5,NA,1,TM72GyUTkf
10,MS,hard,2,NA,0.2857142857142857,TM72GyUTkf
11,MS,easy,3,NA,1,TM72GyUTkf
11,MS,medium,4,NA,0.8,TM72GyUTkf
11,MS,hard,4,NA,0.5714285714285714,TM72GyUTkf
12,MS,easy,3,NA,1,TM72GyUTkf
12,MS,medium,3,NA,0.6,TM72GyUTkf
12,MS,hard,4,NA,0.5714285714285714,TM72GyUTkf
13,MS,easy,3,NA,1,TM72GyUTkf
13,MS,medium,3,NA,0.6,TM72GyUTkf
13,MS,hard,4,NA,0.5714285714285714,TM72GyUTkf
14,MS,easy,3,NA,1,TM72GyUTkf
14,MS,medium,4,NA,0.8,TM72GyUTkf
14,MS,hard,3,NA,0.42857142857142855,TM72GyUTkf
15,MS,easy,3,NA,1,TM72GyUTkf
15,MS,medium,4,NA,0.8,TM72GyUTkf
15,MS,hard,3,NA,0.42857142857142855,TM72GyUTkf
16,MS,easy,3,NA,1,TM72GyUTkf
16,MS,medium,2,NA,0.4,TM72GyUTkf
16,MS,hard,4,NA,0.5714285714285714,TM72GyUTkf
1,MS,easy,3,NA,1,vXDUnP6HMG
1,MS,medium,5,NA,1,vXDUnP6HMG
1,MS,hard,5,NA,0.7142857142857143,vXDUnP6HMG
2,MS,easy,3,NA,1,vXDUnP6HMG
2,MS,medium,5,NA,1,vXDUnP6HMG
2,MS,hard,7,NA,1,vXDUnP6HMG
3,MS,easy,3,NA,1,vXDUnP6HMG
3,MS,medium,5,NA,1,vXDUnP6HMG
3,MS,hard,6,NA,0.8571428571428571,vXDUnP6HMG
4,MS,easy,3,NA,1,vXDUnP6HMG
4,MS,medium,5,NA,1,vXDUnP6HMG
4,MS,hard,7,NA,1,vXDUnP6HMG
5,MS,easy,3,NA,1,vXDUnP6HMG
5,MS,medium,5,NA,1,vXDUnP6HMG
5,MS,hard,6,NA,0.8571428571428571,vXDUnP6HMG
6,MS,easy,3,NA,1,vXDUnP6HMG
6,MS,medium,5,NA,1,vXDUnP6HMG
6,MS,hard,6,NA,0.8571428571428571,vXDUnP6HMG
7,MS,easy,2,NA,0.6666666666666666,vXDUnP6HMG
7,MS,medium,4,NA,0.8,vXDUnP6HMG
7,MS,hard,6,NA,0.8571428571428571,vXDUnP6HMG
8,MS,easy,3,NA,1,vXDUnP6HMG
8,MS,medium,5,NA,1,vXDUnP6HMG
8,MS,hard,6,NA,0.8571428571428571,vXDUnP6HMG
9,MS,easy,3,NA,1,vXDUnP6HMG
9,MS,medium,5,NA,1,vXDUnP6HMG
9,MS,hard,5,NA,0.7142857142857143,vXDUnP6HMG
10,MS,easy,3,NA,1,vXDUnP6HMG
10,MS,medium,5,NA,1,vXDUnP6HMG
10,MS,hard,5,NA,0.7142857142857143,vXDUnP6HMG
11,MS,easy,3,NA,1,vXDUnP6HMG
11,MS,medium,5,NA,1,vXDUnP6HMG
11,MS,hard,4,NA,0.5714285714285714,vXDUnP6HMG
12,MS,easy,3,NA,1,vXDUnP6HMG
12,MS,medium,5,NA,1,vXDUnP6HMG
12,MS,hard,6,NA,0.8571428571428571,vXDUnP6HMG
13,MS,easy,3,NA,1,vXDUnP6HMG
13,MS,medium,4,NA,0.8,vXDUnP6HMG
13,MS,hard,6,NA,0.8571428571428571,vXDUnP6HMG
14,MS,easy,3,NA,1,vXDUnP6HMG
14,MS,medium,5,NA,1,vXDUnP6HMG
14,MS,hard,6,NA,0.8571428571428571,vXDUnP6HMG
15,MS,easy,3,NA,1,vXDUnP6HMG
15,MS,medium,5,NA,1,vXDUnP6HMG
15,MS,hard,4,NA,0.5714285714285714,vXDUnP6HMG
16,MS,easy,3,NA,1,vXDUnP6HMG
16,MS,medium,5,NA,1,vXDUnP6HMG
16,MS,hard,4,NA,0.5714285714285714,vXDUnP6HMG
1,MS,easy,3,NA,1,Go0eoSC1Hu
1,MS,medium,5,NA,1,Go0eoSC1Hu
1,MS,hard,6,NA,0.8571428571428571,Go0eoSC1Hu
2,MS,easy,3,NA,1,Go0eoSC1Hu
2,MS,medium,4,NA,0.8,Go0eoSC1Hu
2,MS,hard,7,NA,1,Go0eoSC1Hu
3,MS,easy,3,NA,1,Go0eoSC1Hu
3,MS,medium,5,NA,1,Go0eoSC1Hu
3,MS,hard,6,NA,0.8571428571428571,Go0eoSC1Hu
4,MS,easy,3,NA,1,Go0eoSC1Hu
4,MS,medium,5,NA,1,Go0eoSC1Hu
4,MS,hard,6,NA,0.8571428571428571,Go0eoSC1Hu
5,MS,easy,3,NA,1,Go0eoSC1Hu
5,MS,medium,5,NA,1,Go0eoSC1Hu
5,MS,hard,5,NA,0.7142857142857143,Go0eoSC1Hu
6,MS,easy,3,NA,1,Go0eoSC1Hu
6,MS,medium,5,NA,1,Go0eoSC1Hu
6,MS,hard,5,NA,0.7142857142857143,Go0eoSC1Hu
7,MS,easy,3,NA,1,Go0eoSC1Hu
7,MS,medium,5,NA,1,Go0eoSC1Hu
7,MS,hard,2,NA,0.2857142857142857,Go0eoSC1Hu
8,MS,easy,3,NA,1,Go0eoSC1Hu
8,MS,medium,5,NA,1,Go0eoSC1Hu
8,MS,hard,7,NA,1,Go0eoSC1Hu
9,MS,easy,3,NA,1,Go0eoSC1Hu
9,MS,medium,5,NA,1,Go0eoSC1Hu
9,MS,hard,5,NA,0.7142857142857143,Go0eoSC1Hu
10,MS,easy,3,NA,1,Go0eoSC1Hu
10,MS,medium,5,NA,1,Go0eoSC1Hu
10,MS,hard,4,NA,0.5714285714285714,Go0eoSC1Hu
11,MS,easy,3,NA,1,Go0eoSC1Hu
11,MS,medium,5,NA,1,Go0eoSC1Hu
11,MS,hard,5,NA,0.7142857142857143,Go0eoSC1Hu
12,MS,easy,3,NA,1,Go0eoSC1Hu
12,MS,medium,5,NA,1,Go0eoSC1Hu
12,MS,hard,6,NA,0.8571428571428571,Go0eoSC1Hu
13,MS,easy,3,NA,1,Go0eoSC1Hu
13,MS,medium,5,NA,1,Go0eoSC1Hu
13,MS,hard,6,NA,0.8571428571428571,Go0eoSC1Hu
14,MS,easy,3,NA,1,Go0eoSC1Hu
14,MS,medium,5,NA,1,Go0eoSC1Hu
14,MS,hard,5,NA,0.7142857142857143,Go0eoSC1Hu
15,MS,easy,3,NA,1,Go0eoSC1Hu
15,MS,medium,5,NA,1,Go0eoSC1Hu
15,MS,hard,5,NA,0.7142857142857143,Go0eoSC1Hu
16,MS,easy,3,NA,1,Go0eoSC1Hu
16,MS,medium,5,NA,1,Go0eoSC1Hu
16,MS,hard,5,NA,0.7142857142857143,Go0eoSC1Hu
1,MS,easy,3,NA,1,uofo7FKPdo
1,MS,medium,5,NA,1,uofo7FKPdo
1,MS,hard,2,NA,0.2857142857142857,uofo7FKPdo
2,MS,easy,3,NA,1,uofo7FKPdo
2,MS,medium,4,NA,0.8,uofo7FKPdo
2,MS,hard,3,NA,0.42857142857142855,uofo7FKPdo
3,MS,easy,3,NA,1,uofo7FKPdo
3,MS,medium,3,NA,0.6,uofo7FKPdo
3,MS,hard,3,NA,0.42857142857142855,uofo7FKPdo
4,MS,easy,3,NA,1,uofo7FKPdo
4,MS,medium,4,NA,0.8,uofo7FKPdo
4,MS,hard,4,NA,0.5714285714285714,uofo7FKPdo
5,MS,easy,3,NA,1,uofo7FKPdo
5,MS,medium,3,NA,0.6,uofo7FKPdo
5,MS,hard,4,NA,0.5714285714285714,uofo7FKPdo
6,MS,easy,3,NA,1,uofo7FKPdo
6,MS,medium,5,NA,1,uofo7FKPdo
6,MS,hard,3,NA,0.42857142857142855,uofo7FKPdo
7,MS,easy,3,NA,1,uofo7FKPdo
7,MS,medium,3,NA,0.6,uofo7FKPdo
7,MS,hard,3,NA,0.42857142857142855,uofo7FKPdo
8,MS,easy,3,NA,1,uofo7FKPdo
8,MS,medium,5,NA,1,uofo7FKPdo
8,MS,hard,4,NA,0.5714285714285714,uofo7FKPdo
9,MS,easy,3,NA,1,uofo7FKPdo
9,MS,medium,5,NA,1,uofo7FKPdo
9,MS,hard,3,NA,0.42857142857142855,uofo7FKPdo
10,MS,easy,3,NA,1,uofo7FKPdo
10,MS,medium,4,NA,0.8,uofo7FKPdo
10,MS,hard,2,NA,0.2857142857142857,uofo7FKPdo
11,MS,easy,3,NA,1,uofo7FKPdo
11,MS,medium,4,NA,0.8,uofo7FKPdo
11,MS,hard,4,NA,0.5714285714285714,uofo7FKPdo
12,MS,easy,2,NA,0.6666666666666666,uofo7FKPdo
12,MS,medium,3,NA,0.6,uofo7FKPdo
12,MS,hard,4,NA,0.5714285714285714,uofo7FKPdo
13,MS,easy,2,NA,0.6666666666666666,uofo7FKPdo
13,MS,medium,5,NA,1,uofo7FKPdo
13,MS,hard,4,NA,0.5714285714285714,uofo7FKPdo
14,MS,easy,3,NA,1,uofo7FKPdo
14,MS,medium,2,NA,0.4,uofo7FKPdo
14,MS,hard,4,NA,0.5714285714285714,uofo7FKPdo
15,MS,easy,3,NA,1,uofo7FKPdo
15,MS,medium,4,NA,0.8,uofo7FKPdo
15,MS,hard,4,NA,0.5714285714285714,uofo7FKPdo
16,MS,easy,3,NA,1,uofo7FKPdo
16,MS,medium,3,NA,0.6,uofo7FKPdo
16,MS,hard,3,NA,0.42857142857142855,uofo7FKPdo
1,MS,easy,3,NA,1,VEZTZ89Pge
1,MS,medium,4,NA,0.8,VEZTZ89Pge
1,MS,hard,2,NA,0.2857142857142857,VEZTZ89Pge
2,MS,easy,3,NA,1,VEZTZ89Pge
2,MS,medium,5,NA,1,VEZTZ89Pge
2,MS,hard,3,NA,0.42857142857142855,VEZTZ89Pge
3,MS,easy,3,NA,1,VEZTZ89Pge
3,MS,medium,5,NA,1,VEZTZ89Pge
3,MS,hard,4,NA,0.5714285714285714,VEZTZ89Pge
4,MS,easy,3,NA,1,VEZTZ89Pge
4,MS,medium,4,NA,0.8,VEZTZ89Pge
4,MS,hard,2,NA,0.2857142857142857,VEZTZ89Pge
5,MS,easy,3,NA,1,VEZTZ89Pge
5,MS,medium,4,NA,0.8,VEZTZ89Pge
5,MS,hard,4,NA,0.5714285714285714,VEZTZ89Pge
6,MS,easy,2,NA,0.6666666666666666,VEZTZ89Pge
6,MS,medium,5,NA,1,VEZTZ89Pge
6,MS,hard,4,NA,0.5714285714285714,VEZTZ89Pge
7,MS,easy,0,NA,0,VEZTZ89Pge
7,MS,medium,5,NA,1,VEZTZ89Pge
7,MS,hard,4,NA,0.5714285714285714,VEZTZ89Pge
8,MS,easy,3,NA,1,VEZTZ89Pge
8,MS,medium,5,NA,1,VEZTZ89Pge
8,MS,hard,3,NA,0.42857142857142855,VEZTZ89Pge
9,MS,easy,3,NA,1,VEZTZ89Pge
9,MS,medium,5,NA,1,VEZTZ89Pge
9,MS,hard,4,NA,0.5714285714285714,VEZTZ89Pge
10,MS,easy,3,NA,1,VEZTZ89Pge
10,MS,medium,5,NA,1,VEZTZ89Pge
10,MS,hard,4,NA,0.5714285714285714,VEZTZ89Pge
11,MS,easy,3,NA,1,VEZTZ89Pge
11,MS,medium,4,NA,0.8,VEZTZ89Pge
11,MS,hard,3,NA,0.42857142857142855,VEZTZ89Pge
12,MS,easy,3,NA,1,VEZTZ89Pge
12,MS,medium,4,NA,0.8,VEZTZ89Pge
12,MS,hard,2,NA,0.2857142857142857,VEZTZ89Pge
13,MS,easy,3,NA,1,VEZTZ89Pge
13,MS,medium,4,NA,0.8,VEZTZ89Pge
13,MS,hard,3,NA,0.42857142857142855,VEZTZ89Pge
14,MS,easy,3,NA,1,VEZTZ89Pge
14,MS,medium,3,NA,0.6,VEZTZ89Pge
14,MS,hard,3,NA,0.42857142857142855,VEZTZ89Pge
15,MS,easy,3,NA,1,VEZTZ89Pge
15,MS,medium,3,NA,0.6,VEZTZ89Pge
15,MS,hard,3,NA,0.42857142857142855,VEZTZ89Pge
16,MS,easy,3,NA,1,VEZTZ89Pge
16,MS,medium,4,NA,0.8,VEZTZ89Pge
16,MS,hard,3,NA,0.42857142857142855,VEZTZ89Pge
1,MS,easy,3,11.9189,1,HF94YUUt2C
1,MS,medium,4,14.8244,0.8,HF94YUUt2C
1,MS,hard,5,19.6481,0.7142857142857143,HF94YUUt2C
2,MS,easy,3,9.8355,1,HF94YUUt2C
2,MS,medium,4,17.3673,0.8,HF94YUUt2C
2,MS,hard,4,17.6329,0.5714285714285714,HF94YUUt2C
3,MS,easy,3,9.1255,1,HF94YUUt2C
3,MS,medium,5,16.465,1,HF94YUUt2C
3,MS,hard,5,16.0354,0.7142857142857143,HF94YUUt2C
4,MS,easy,3,8.7626,1,HF94YUUt2C
4,MS,medium,5,17.4132,1,HF94YUUt2C
4,MS,hard,6,19.2535,0.8571428571428571,HF94YUUt2C
5,MS,easy,3,9.5253,1,HF94YUUt2C
5,MS,medium,5,14.5538,1,HF94YUUt2C
5,MS,hard,6,18.6536,0.8571428571428571,HF94YUUt2C
6,MS,easy,3,9.2906,1,HF94YUUt2C
6,MS,medium,5,14.4663,1,HF94YUUt2C
6,MS,hard,5,15.0855,0.7142857142857143,HF94YUUt2C
7,MS,easy,3,8.1807,1,HF94YUUt2C
7,MS,medium,5,13.1496,1,HF94YUUt2C
7,MS,hard,5,21.3097,0.7142857142857143,HF94YUUt2C
8,MS,easy,3,7.9049,1,HF94YUUt2C
8,MS,medium,5,14.3319,1,HF94YUUt2C
8,MS,hard,3,12.4385,0.42857142857142855,HF94YUUt2C
9,MS,easy,3,8.6255,1,HF94YUUt2C
9,MS,medium,5,13.3663,1,HF94YUUt2C
9,MS,hard,5,14.5491,0.7142857142857143,HF94YUUt2C
10,MS,easy,3,9.3411,1,HF94YUUt2C
10,MS,medium,5,17.113,1,HF94YUUt2C
10,MS,hard,5,13.6321,0.7142857142857143,HF94YUUt2C
11,MS,easy,3,7.8263,1,HF94YUUt2C
11,MS,medium,5,13.7038,1,HF94YUUt2C
11,MS,hard,6,18.8162,0.8571428571428571,HF94YUUt2C
12,MS,easy,3,9.2905,1,HF94YUUt2C
12,MS,medium,5,15.4852,1,HF94YUUt2C
12,MS,hard,6,21.5807,0.8571428571428571,HF94YUUt2C
13,MS,easy,3,9.453,1,HF94YUUt2C
13,MS,medium,5,17.5126,1,HF94YUUt2C
13,MS,hard,6,17.8838,0.8571428571428571,HF94YUUt2C
14,MS,easy,3,14.0704,1,HF94YUUt2C
14,MS,medium,5,14.0571,1,HF94YUUt2C
14,MS,hard,6,21.3763,0.8571428571428571,HF94YUUt2C
15,MS,easy,3,9.3126,1,HF94YUUt2C
15,MS,medium,5,13.4331,1,HF94YUUt2C
15,MS,hard,6,20.5653,0.8571428571428571,HF94YUUt2C
16,MS,easy,3,10.8014,1,HF94YUUt2C
16,MS,medium,5,15.5872,1,HF94YUUt2C
16,MS,hard,4,19.3867,0.5714285714285714,HF94YUUt2C
1,MS,easy,3,NA,1,z93bJWn4hw
1,MS,medium,4,NA,0.8,z93bJWn4hw
1,MS,hard,5,NA,0.7142857142857143,z93bJWn4hw
2,MS,easy,3,NA,1,z93bJWn4hw
2,MS,medium,5,NA,1,z93bJWn4hw
2,MS,hard,3,NA,0.42857142857142855,z93bJWn4hw
3,MS,easy,3,NA,1,z93bJWn4hw
3,MS,medium,5,NA,1,z93bJWn4hw
3,MS,hard,3,NA,0.42857142857142855,z93bJWn4hw
4,MS,easy,3,NA,1,z93bJWn4hw
4,MS,medium,5,NA,1,z93bJWn4hw
4,MS,hard,4,NA,0.5714285714285714,z93bJWn4hw
5,MS,easy,3,NA,1,z93bJWn4hw
5,MS,medium,5,NA,1,z93bJWn4hw
5,MS,hard,6,NA,0.8571428571428571,z93bJWn4hw
6,MS,easy,3,NA,1,z93bJWn4hw
6,MS,medium,5,NA,1,z93bJWn4hw
6,MS,hard,7,NA,1,z93bJWn4hw
7,MS,easy,3,NA,1,z93bJWn4hw
7,MS,medium,5,NA,1,z93bJWn4hw
7,MS,hard,4,NA,0.5714285714285714,z93bJWn4hw
8,MS,easy,3,NA,1,z93bJWn4hw
8,MS,medium,5,NA,1,z93bJWn4hw
8,MS,hard,5,NA,0.7142857142857143,z93bJWn4hw
9,MS,easy,3,NA,1,z93bJWn4hw
9,MS,medium,5,NA,1,z93bJWn4hw
9,MS,hard,6,NA,0.8571428571428571,z93bJWn4hw
10,MS,easy,3,NA,1,z93bJWn4hw
10,MS,medium,5,NA,1,z93bJWn4hw
10,MS,hard,6,NA,0.8571428571428571,z93bJWn4hw
11,MS,easy,3,NA,1,z93bJWn4hw
11,MS,medium,4,NA,0.8,z93bJWn4hw
11,MS,hard,5,NA,0.7142857142857143,z93bJWn4hw
12,MS,easy,3,NA,1,z93bJWn4hw
12,MS,medium,5,NA,1,z93bJWn4hw
12,MS,hard,5,NA,0.7142857142857143,z93bJWn4hw
13,MS,easy,3,NA,1,z93bJWn4hw
13,MS,medium,5,NA,1,z93bJWn4hw
13,MS,hard,6,NA,0.8571428571428571,z93bJWn4hw
14,MS,easy,3,NA,1,z93bJWn4hw
14,MS,medium,5,NA,1,z93bJWn4hw
14,MS,hard,6,NA,0.8571428571428571,z93bJWn4hw
15,MS,easy,3,NA,1,z93bJWn4hw
15,MS,medium,5,NA,1,z93bJWn4hw
15,MS,hard,6,NA,0.8571428571428571,z93bJWn4hw
16,MS,easy,3,NA,1,z93bJWn4hw
16,MS,medium,4,NA,0.8,z93bJWn4hw
16,MS,hard,6,NA,0.8571428571428571,z93bJWn4hw
1,MS,easy,3,NA,1,PsevAJnzJ0
1,MS,medium,4,NA,0.8,PsevAJnzJ0
1,MS,hard,6,NA,0.8571428571428571,PsevAJnzJ0
2,MS,easy,3,NA,1,PsevAJnzJ0
2,MS,medium,5,NA,1,PsevAJnzJ0
2,MS,hard,5,NA,0.7142857142857143,PsevAJnzJ0
3,MS,easy,3,NA,1,PsevAJnzJ0
3,MS,medium,5,NA,1,PsevAJnzJ0
3,MS,hard,4,NA,0.5714285714285714,PsevAJnzJ0
4,MS,easy,3,NA,1,PsevAJnzJ0
4,MS,medium,5,NA,1,PsevAJnzJ0
4,MS,hard,5,NA,0.7142857142857143,PsevAJnzJ0
5,MS,easy,3,NA,1,PsevAJnzJ0
5,MS,medium,5,NA,1,PsevAJnzJ0
5,MS,hard,6,NA,0.8571428571428571,PsevAJnzJ0
6,MS,easy,3,NA,1,PsevAJnzJ0
6,MS,medium,5,NA,1,PsevAJnzJ0
6,MS,hard,5,NA,0.7142857142857143,PsevAJnzJ0
7,MS,easy,3,NA,1,PsevAJnzJ0
7,MS,medium,5,NA,1,PsevAJnzJ0
7,MS,hard,5,NA,0.7142857142857143,PsevAJnzJ0
8,MS,easy,3,NA,1,PsevAJnzJ0
8,MS,medium,4,NA,0.8,PsevAJnzJ0
8,MS,hard,4,NA,0.5714285714285714,PsevAJnzJ0
9,MS,easy,3,NA,1,PsevAJnzJ0
9,MS,medium,5,NA,1,PsevAJnzJ0
9,MS,hard,5,NA,0.7142857142857143,PsevAJnzJ0
10,MS,easy,3,NA,1,PsevAJnzJ0
10,MS,medium,5,NA,1,PsevAJnzJ0
10,MS,hard,5,NA,0.7142857142857143,PsevAJnzJ0
11,MS,easy,3,NA,1,PsevAJnzJ0
11,MS,medium,5,NA,1,PsevAJnzJ0
11,MS,hard,4,NA,0.5714285714285714,PsevAJnzJ0
12,MS,easy,3,NA,1,PsevAJnzJ0
12,MS,medium,4,NA,0.8,PsevAJnzJ0
12,MS,hard,3,NA,0.42857142857142855,PsevAJnzJ0
13,MS,easy,3,NA,1,PsevAJnzJ0
13,MS,medium,4,NA,0.8,PsevAJnzJ0
13,MS,hard,4,NA,0.5714285714285714,PsevAJnzJ0
14,MS,easy,3,NA,1,PsevAJnzJ0
14,MS,medium,5,NA,1,PsevAJnzJ0
14,MS,hard,4,NA,0.5714285714285714,PsevAJnzJ0
15,MS,easy,3,NA,1,PsevAJnzJ0
15,MS,medium,5,NA,1,PsevAJnzJ0
15,MS,hard,5,NA,0.7142857142857143,PsevAJnzJ0
16,MS,easy,3,NA,1,PsevAJnzJ0
16,MS,medium,4,NA,0.8,PsevAJnzJ0
16,MS,hard,6,NA,0.8571428571428571,PsevAJnzJ0
1,MS,easy,2,NA,0.6666666666666666,Piksbkqbn1
1,MS,medium,5,NA,1,Piksbkqbn1
1,MS,hard,4,NA,0.5714285714285714,Piksbkqbn1
2,MS,easy,3,NA,1,Piksbkqbn1
2,MS,medium,3,NA,0.6,Piksbkqbn1
2,MS,hard,4,NA,0.5714285714285714,Piksbkqbn1
3,MS,easy,3,NA,1,Piksbkqbn1
3,MS,medium,4,NA,0.8,Piksbkqbn1
3,MS,hard,3,NA,0.42857142857142855,Piksbkqbn1
4,MS,easy,3,NA,1,Piksbkqbn1
4,MS,medium,3,NA,0.6,Piksbkqbn1
4,MS,hard,5,NA,0.7142857142857143,Piksbkqbn1
5,MS,easy,3,NA,1,Piksbkqbn1
5,MS,medium,5,NA,1,Piksbkqbn1
5,MS,hard,2,NA,0.2857142857142857,Piksbkqbn1
6,MS,easy,3,NA,1,Piksbkqbn1
6,MS,medium,5,NA,1,Piksbkqbn1
6,MS,hard,5,NA,0.7142857142857143,Piksbkqbn1
7,MS,easy,3,NA,1,Piksbkqbn1
7,MS,medium,4,NA,0.8,Piksbkqbn1
7,MS,hard,3,NA,0.42857142857142855,Piksbkqbn1
8,MS,easy,3,NA,1,Piksbkqbn1
8,MS,medium,5,NA,1,Piksbkqbn1
8,MS,hard,3,NA,0.42857142857142855,Piksbkqbn1
9,MS,easy,3,NA,1,Piksbkqbn1
9,MS,medium,4,NA,0.8,Piksbkqbn1
9,MS,hard,4,NA,0.5714285714285714,Piksbkqbn1
10,MS,easy,2,NA,0.6666666666666666,Piksbkqbn1
10,MS,medium,4,NA,0.8,Piksbkqbn1
10,MS,hard,2,NA,0.2857142857142857,Piksbkqbn1
11,MS,easy,3,NA,1,Piksbkqbn1
11,MS,medium,5,NA,1,Piksbkqbn1
11,MS,hard,5,NA,0.7142857142857143,Piksbkqbn1
12,MS,easy,3,NA,1,Piksbkqbn1
12,MS,medium,1,NA,0.2,Piksbkqbn1
12,MS,hard,5,NA,0.7142857142857143,Piksbkqbn1
13,MS,easy,3,NA,1,Piksbkqbn1
13,MS,medium,3,NA,0.6,Piksbkqbn1
13,MS,hard,3,NA,0.42857142857142855,Piksbkqbn1
14,MS,easy,3,NA,1,Piksbkqbn1
14,MS,medium,2,NA,0.4,Piksbkqbn1
14,MS,hard,4,NA,0.5714285714285714,Piksbkqbn1
15,MS,easy,3,NA,1,Piksbkqbn1
15,MS,medium,3,NA,0.6,Piksbkqbn1
15,MS,hard,3,NA,0.42857142857142855,Piksbkqbn1
16,MS,easy,3,NA,1,Piksbkqbn1
16,MS,medium,4,NA,0.8,Piksbkqbn1
16,MS,hard,4,NA,0.5714285714285714,Piksbkqbn1
1,MS,easy,3,NA,1,dWejUN00z6
1,MS,medium,5,NA,1,dWejUN00z6
1,MS,hard,4,NA,0.5714285714285714,dWejUN00z6
2,MS,easy,3,NA,1,dWejUN00z6
2,MS,medium,4,NA,0.8,dWejUN00z6
2,MS,hard,5,NA,0.7142857142857143,dWejUN00z6
3,MS,easy,3,NA,1,dWejUN00z6
3,MS,medium,5,NA,1,dWejUN00z6
3,MS,hard,4,NA,0.5714285714285714,dWejUN00z6
4,MS,easy,2,NA,0.6666666666666666,dWejUN00z6
4,MS,medium,4,NA,0.8,dWejUN00z6
4,MS,hard,2,NA,0.2857142857142857,dWejUN00z6
5,MS,easy,3,NA,1,dWejUN00z6
5,MS,medium,3,NA,0.6,dWejUN00z6
5,MS,hard,5,NA,0.7142857142857143,dWejUN00z6
6,MS,easy,3,NA,1,dWejUN00z6
6,MS,medium,4,NA,0.8,dWejUN00z6
6,MS,hard,2,NA,0.2857142857142857,dWejUN00z6
7,MS,easy,3,NA,1,dWejUN00z6
7,MS,medium,4,NA,0.8,dWejUN00z6
7,MS,hard,3,NA,0.42857142857142855,dWejUN00z6
8,MS,easy,3,NA,1,dWejUN00z6
8,MS,medium,5,NA,1,dWejUN00z6
8,MS,hard,5,NA,0.7142857142857143,dWejUN00z6
9,MS,easy,3,NA,1,dWejUN00z6
9,MS,medium,5,NA,1,dWejUN00z6
9,MS,hard,4,NA,0.5714285714285714,dWejUN00z6
10,MS,easy,3,NA,1,dWejUN00z6
10,MS,medium,5,NA,1,dWejUN00z6
10,MS,hard,5,NA,0.7142857142857143,dWejUN00z6
11,MS,easy,3,NA,1,dWejUN00z6
11,MS,medium,3,NA,0.6,dWejUN00z6
11,MS,hard,5,NA,0.7142857142857143,dWejUN00z6
12,MS,easy,3,NA,1,dWejUN00z6
12,MS,medium,5,NA,1,dWejUN00z6
12,MS,hard,5,NA,0.7142857142857143,dWejUN00z6
13,MS,easy,3,NA,1,dWejUN00z6
13,MS,medium,5,NA,1,dWejUN00z6
13,MS,hard,3,NA,0.42857142857142855,dWejUN00z6
14,MS,easy,3,NA,1,dWejUN00z6
14,MS,medium,4,NA,0.8,dWejUN00z6
14,MS,hard,4,NA,0.5714285714285714,dWejUN00z6
15,MS,easy,2,NA,0.6666666666666666,dWejUN00z6
15,MS,medium,3,NA,0.6,dWejUN00z6
15,MS,hard,2,NA,0.2857142857142857,dWejUN00z6
16,MS,easy,3,NA,1,dWejUN00z6
16,MS,medium,5,NA,1,dWejUN00z6
16,MS,hard,4,NA,0.5714285714285714,dWejUN00z6
1,MS,easy,3,NA,1,qG1rKdXNBQ
1,MS,medium,5,NA,1,qG1rKdXNBQ
1,MS,hard,6,NA,0.8571428571428571,qG1rKdXNBQ
2,MS,easy,3,NA,1,qG1rKdXNBQ
2,MS,medium,5,NA,1,qG1rKdXNBQ
2,MS,hard,7,NA,1,qG1rKdXNBQ
3,MS,easy,3,NA,1,qG1rKdXNBQ
3,MS,medium,5,NA,1,qG1rKdXNBQ
3,MS,hard,6,NA,0.8571428571428571,qG1rKdXNBQ
4,MS,easy,3,NA,1,qG1rKdXNBQ
4,MS,medium,5,NA,1,qG1rKdXNBQ
4,MS,hard,7,NA,1,qG1rKdXNBQ
5,MS,easy,3,NA,1,qG1rKdXNBQ
5,MS,medium,5,NA,1,qG1rKdXNBQ
5,MS,hard,7,NA,1,qG1rKdXNBQ
6,MS,easy,3,NA,1,qG1rKdXNBQ
6,MS,medium,5,NA,1,qG1rKdXNBQ
6,MS,hard,7,NA,1,qG1rKdXNBQ
7,MS,easy,3,NA,1,qG1rKdXNBQ
7,MS,medium,5,NA,1,qG1rKdXNBQ
7,MS,hard,7,NA,1,qG1rKdXNBQ
8,MS,easy,3,NA,1,qG1rKdXNBQ
8,MS,medium,5,NA,1,qG1rKdXNBQ
8,MS,hard,7,NA,1,qG1rKdXNBQ
9,MS,easy,3,NA,1,qG1rKdXNBQ
9,MS,medium,5,NA,1,qG1rKdXNBQ
9,MS,hard,7,NA,1,qG1rKdXNBQ
10,MS,easy,3,NA,1,qG1rKdXNBQ
10,MS,medium,5,NA,1,qG1rKdXNBQ
10,MS,hard,7,NA,1,qG1rKdXNBQ
11,MS,easy,3,NA,1,qG1rKdXNBQ
11,MS,medium,5,NA,1,qG1rKdXNBQ
11,MS,hard,7,NA,1,qG1rKdXNBQ
12,MS,easy,3,NA,1,qG1rKdXNBQ
12,MS,medium,5,NA,1,qG1rKdXNBQ
12,MS,hard,7,NA,1,qG1rKdXNBQ
13,MS,easy,3,NA,1,qG1rKdXNBQ
13,MS,medium,5,NA,1,qG1rKdXNBQ
13,MS,hard,7,NA,1,qG1rKdXNBQ
14,MS,easy,3,NA,1,qG1rKdXNBQ
14,MS,medium,5,NA,1,qG1rKdXNBQ
14,MS,hard,7,NA,1,qG1rKdXNBQ
15,MS,easy,3,NA,1,qG1rKdXNBQ
15,MS,medium,5,NA,1,qG1rKdXNBQ
15,MS,hard,6,NA,0.8571428571428571,qG1rKdXNBQ
16,MS,easy,3,NA,1,qG1rKdXNBQ
16,MS,medium,5,NA,1,qG1rKdXNBQ
16,MS,hard,7,NA,1,qG1rKdXNBQ
1,MS,easy,3,NA,1,2dX8HaA5QM
1,MS,medium,4,NA,0.8,2dX8HaA5QM
1,MS,hard,4,NA,0.5714285714285714,2dX8HaA5QM
2,MS,easy,3,NA,1,2dX8HaA5QM
2,MS,medium,3,NA,0.6,2dX8HaA5QM
2,MS,hard,3,NA,0.42857142857142855,2dX8HaA5QM
3,MS,easy,3,NA,1,2dX8HaA5QM
3,MS,medium,3,NA,0.6,2dX8HaA5QM
3,MS,hard,4,NA,0.5714285714285714,2dX8HaA5QM
4,MS,easy,3,NA,1,2dX8HaA5QM
4,MS,medium,3,NA,0.6,2dX8HaA5QM
4,MS,hard,4,NA,0.5714285714285714,2dX8HaA5QM
5,MS,easy,3,NA,1,2dX8HaA5QM
5,MS,medium,3,NA,0.6,2dX8HaA5QM
5,MS,hard,4,NA,0.5714285714285714,2dX8HaA5QM
6,MS,easy,3,NA,1,2dX8HaA5QM
6,MS,medium,4,NA,0.8,2dX8HaA5QM
6,MS,hard,4,NA,0.5714285714285714,2dX8HaA5QM
7,MS,easy,3,NA,1,2dX8HaA5QM
7,MS,medium,4,NA,0.8,2dX8HaA5QM
7,MS,hard,3,NA,0.42857142857142855,2dX8HaA5QM
8,MS,easy,3,NA,1,2dX8HaA5QM
8,MS,medium,3,NA,0.6,2dX8HaA5QM
8,MS,hard,3,NA,0.42857142857142855,2dX8HaA5QM
9,MS,easy,2,NA,0.6666666666666666,2dX8HaA5QM
9,MS,medium,2,NA,0.4,2dX8HaA5QM
9,MS,hard,4,NA,0.5714285714285714,2dX8HaA5QM
10,MS,easy,2,NA,0.6666666666666666,2dX8HaA5QM
10,MS,medium,3,NA,0.6,2dX8HaA5QM
10,MS,hard,3,NA,0.42857142857142855,2dX8HaA5QM
11,MS,easy,3,NA,1,2dX8HaA5QM
11,MS,medium,3,NA,0.6,2dX8HaA5QM
11,MS,hard,3,NA,0.42857142857142855,2dX8HaA5QM
12,MS,easy,3,NA,1,2dX8HaA5QM
12,MS,medium,3,NA,0.6,2dX8HaA5QM
12,MS,hard,3,NA,0.42857142857142855,2dX8HaA5QM
13,MS,easy,2,NA,0.6666666666666666,2dX8HaA5QM
13,MS,medium,3,NA,0.6,2dX8HaA5QM
13,MS,hard,3,NA,0.42857142857142855,2dX8HaA5QM
14,MS,easy,3,NA,1,2dX8HaA5QM
14,MS,medium,3,NA,0.6,2dX8HaA5QM
14,MS,hard,4,NA,0.5714285714285714,2dX8HaA5QM
15,MS,easy,2,NA,0.6666666666666666,2dX8HaA5QM
15,MS,medium,4,NA,0.8,2dX8HaA5QM
15,MS,hard,5,NA,0.7142857142857143,2dX8HaA5QM
16,MS,easy,3,NA,1,2dX8HaA5QM
16,MS,medium,4,NA,0.8,2dX8HaA5QM
16,MS,hard,5,NA,0.7142857142857143,2dX8HaA5QM
1,MS,easy,3,8.681,1,jipsxYWATF
1,MS,medium,5,11.632,1,jipsxYWATF
1,MS,hard,6,21.384,0.8571428571428571,jipsxYWATF
2,MS,easy,3,8.415,1,jipsxYWATF
2,MS,medium,5,11.664,1,jipsxYWATF
2,MS,hard,7,21.514,1,jipsxYWATF
3,MS,easy,3,7.25,1,jipsxYWATF
3,MS,medium,5,18.948,1,jipsxYWATF
3,MS,hard,5,28.267,0.7142857142857143,jipsxYWATF
4,MS,easy,3,8.467,1,jipsxYWATF
4,MS,medium,5,12.466,1,jipsxYWATF
4,MS,hard,7,20.166,1,jipsxYWATF
5,MS,easy,3,11.232,1,jipsxYWATF
5,MS,medium,5,23.082,1,jipsxYWATF
5,MS,hard,5,27.116,0.7142857142857143,jipsxYWATF
6,MS,easy,3,7.483,1,jipsxYWATF
6,MS,medium,5,18.634,1,jipsxYWATF
6,MS,hard,5,20.465,0.7142857142857143,jipsxYWATF
7,MS,easy,3,10.532,1,jipsxYWATF
7,MS,medium,4,19.432,0.8,jipsxYWATF
7,MS,hard,7,24.515,1,jipsxYWATF
8,MS,easy,3,8.599,1,jipsxYWATF
8,MS,medium,5,15.898,1,jipsxYWATF
8,MS,hard,7,34.049,1,jipsxYWATF
9,MS,easy,3,6.916,1,jipsxYWATF
9,MS,medium,5,14.765,1,jipsxYWATF
9,MS,hard,5,20.567,0.7142857142857143,jipsxYWATF
10,MS,easy,3,7.667,1,jipsxYWATF
10,MS,medium,5,13.568,1,jipsxYWATF
10,MS,hard,6,22.664,0.8571428571428571,jipsxYWATF
11,MS,easy,3,6.916,1,jipsxYWATF
11,MS,medium,5,15.798,1,jipsxYWATF
11,MS,hard,6,51.5,0.8571428571428571,jipsxYWATF
12,MS,easy,3,7.848,1,jipsxYWATF
12,MS,medium,5,14.683,1,jipsxYWATF
12,MS,hard,6,30.701,0.8571428571428571,jipsxYWATF
13,MS,easy,3,7.065,1,jipsxYWATF
13,MS,medium,5,13.23,1,jipsxYWATF
13,MS,hard,6,39.183,0.8571428571428571,jipsxYWATF
14,MS,easy,3,6.983,1,jipsxYWATF
14,MS,medium,5,13.531,1,jipsxYWATF
14,MS,hard,6,24.914,0.8571428571428571,jipsxYWATF
15,MS,easy,3,7.799,1,jipsxYWATF
15,MS,medium,5,12.698,1,jipsxYWATF
15,MS,hard,7,27.783,1,jipsxYWATF
16,MS,easy,3,9.066,1,jipsxYWATF
16,MS,medium,5,11.53,1,jipsxYWATF
16,MS,hard,5,26.165,0.7142857142857143,jipsxYWATF
1,MS,easy,3,NA,1,1W5HQaoCSR
1,MS,medium,5,NA,1,1W5HQaoCSR
1,MS,hard,3,NA,0.42857142857142855,1W5HQaoCSR
2,MS,easy,3,NA,1,1W5HQaoCSR
2,MS,medium,5,NA,1,1W5HQaoCSR
2,MS,hard,4,NA,0.5714285714285714,1W5HQaoCSR
3,MS,easy,3,NA,1,1W5HQaoCSR
3,MS,medium,4,NA,0.8,1W5HQaoCSR
3,MS,hard,4,NA,0.5714285714285714,1W5HQaoCSR
4,MS,easy,3,NA,1,1W5HQaoCSR
4,MS,medium,5,NA,1,1W5HQaoCSR
4,MS,hard,2,NA,0.2857142857142857,1W5HQaoCSR
5,MS,easy,3,NA,1,1W5HQaoCSR
5,MS,medium,4,NA,0.8,1W5HQaoCSR
5,MS,hard,4,NA,0.5714285714285714,1W5HQaoCSR
6,MS,easy,3,NA,1,1W5HQaoCSR
6,MS,medium,5,NA,1,1W5HQaoCSR
6,MS,hard,4,NA,0.5714285714285714,1W5HQaoCSR
7,MS,easy,3,NA,1,1W5HQaoCSR
7,MS,medium,5,NA,1,1W5HQaoCSR
7,MS,hard,4,NA,0.5714285714285714,1W5HQaoCSR
8,MS,easy,3,NA,1,1W5HQaoCSR
8,MS,medium,5,NA,1,1W5HQaoCSR
8,MS,hard,3,NA,0.42857142857142855,1W5HQaoCSR
9,MS,easy,3,NA,1,1W5HQaoCSR
9,MS,medium,5,NA,1,1W5HQaoCSR
9,MS,hard,4,NA,0.5714285714285714,1W5HQaoCSR
10,MS,easy,3,NA,1,1W5HQaoCSR
10,MS,medium,4,NA,0.8,1W5HQaoCSR
10,MS,hard,4,NA,0.5714285714285714,1W5HQaoCSR
11,MS,easy,3,NA,1,1W5HQaoCSR
11,MS,medium,4,NA,0.8,1W5HQaoCSR
11,MS,hard,5,NA,0.7142857142857143,1W5HQaoCSR
12,MS,easy,3,NA,1,1W5HQaoCSR
12,MS,medium,4,NA,0.8,1W5HQaoCSR
12,MS,hard,5,NA,0.7142857142857143,1W5HQaoCSR
13,MS,easy,3,NA,1,1W5HQaoCSR
13,MS,medium,5,NA,1,1W5HQaoCSR
13,MS,hard,3,NA,0.42857142857142855,1W5HQaoCSR
14,MS,easy,3,NA,1,1W5HQaoCSR
14,MS,medium,5,NA,1,1W5HQaoCSR
14,MS,hard,3,NA,0.42857142857142855,1W5HQaoCSR
15,MS,easy,3,NA,1,1W5HQaoCSR
15,MS,medium,5,NA,1,1W5HQaoCSR
15,MS,hard,4,NA,0.5714285714285714,1W5HQaoCSR
16,MS,easy,3,NA,1,1W5HQaoCSR
16,MS,medium,5,NA,1,1W5HQaoCSR
16,MS,hard,4,NA,0.5714285714285714,1W5HQaoCSR
1,MS,easy,3,16.947,1,qn7iE4w9eA
1,MS,medium,5,14.081,1,qn7iE4w9eA
1,MS,hard,5,15.937,0.7142857142857143,qn7iE4w9eA
2,MS,easy,3,9.329,1,qn7iE4w9eA
2,MS,medium,5,35.154,1,qn7iE4w9eA
2,MS,hard,3,21.852,0.42857142857142855,qn7iE4w9eA
3,MS,easy,3,10.156,1,qn7iE4w9eA
3,MS,medium,5,20.74,1,qn7iE4w9eA
3,MS,hard,3,19.979,0.42857142857142855,qn7iE4w9eA
4,MS,easy,3,24.049,1,qn7iE4w9eA
4,MS,medium,5,13.772,1,qn7iE4w9eA
4,MS,hard,1,30.13,0.14285714285714285,qn7iE4w9eA
5,MS,easy,3,8.627,1,qn7iE4w9eA
5,MS,medium,5,19.225,1,qn7iE4w9eA
5,MS,hard,2,15.686,0.2857142857142857,qn7iE4w9eA
6,MS,easy,3,8.955,1,qn7iE4w9eA
6,MS,medium,3,27.4,0.6,qn7iE4w9eA
6,MS,hard,4,17.412,0.5714285714285714,qn7iE4w9eA
7,MS,easy,3,8.096,1,qn7iE4w9eA
7,MS,medium,5,21.903,1,qn7iE4w9eA
7,MS,hard,4,14.764,0.5714285714285714,qn7iE4w9eA
8,MS,easy,3,9.674,1,qn7iE4w9eA
8,MS,medium,5,18.018,1,qn7iE4w9eA
8,MS,hard,6,24.839,0.8571428571428571,qn7iE4w9eA
9,MS,easy,3,9.889,1,qn7iE4w9eA
9,MS,medium,4,39.774,0.8,qn7iE4w9eA
9,MS,hard,4,19.454,0.5714285714285714,qn7iE4w9eA
10,MS,easy,3,15.925,1,qn7iE4w9eA
10,MS,medium,4,16.992,0.8,qn7iE4w9eA
10,MS,hard,4,23.862,0.5714285714285714,qn7iE4w9eA
11,MS,easy,3,10.236,1,qn7iE4w9eA
11,MS,medium,5,25.887,1,qn7iE4w9eA
11,MS,hard,4,17.58,0.5714285714285714,qn7iE4w9eA
12,MS,easy,3,10.476,1,qn7iE4w9eA
12,MS,medium,4,30.165,0.8,qn7iE4w9eA
12,MS,hard,4,21.203,0.5714285714285714,qn7iE4w9eA
13,MS,easy,3,9.513,1,qn7iE4w9eA
13,MS,medium,5,22.237,1,qn7iE4w9eA
13,MS,hard,4,20.702,0.5714285714285714,qn7iE4w9eA
14,MS,easy,3,10.144,1,qn7iE4w9eA
14,MS,medium,5,29.386,1,qn7iE4w9eA
14,MS,hard,2,32.292,0.2857142857142857,qn7iE4w9eA
15,MS,easy,3,24.449,1,qn7iE4w9eA
15,MS,medium,3,34.987,0.6,qn7iE4w9eA
15,MS,hard,6,32.158,0.8571428571428571,qn7iE4w9eA
16,MS,easy,3,8.905,1,qn7iE4w9eA
16,MS,medium,5,14.153,1,qn7iE4w9eA
16,MS,hard,4,15.085,0.5714285714285714,qn7iE4w9eA
1,MS,easy,3,NA,1,kuTZjru3VL
1,MS,medium,5,NA,1,kuTZjru3VL
1,MS,hard,5,NA,0.7142857142857143,kuTZjru3VL
2,MS,easy,3,NA,1,kuTZjru3VL
2,MS,medium,5,NA,1,kuTZjru3VL
2,MS,hard,7,NA,1,kuTZjru3VL
3,MS,easy,3,NA,1,kuTZjru3VL
3,MS,medium,5,NA,1,kuTZjru3VL
3,MS,hard,7,NA,1,kuTZjru3VL
4,MS,easy,3,NA,1,kuTZjru3VL
4,MS,medium,5,NA,1,kuTZjru3VL
4,MS,hard,6,NA,0.8571428571428571,kuTZjru3VL
5,MS,easy,3,NA,1,kuTZjru3VL
5,MS,medium,5,NA,1,kuTZjru3VL
5,MS,hard,6,NA,0.8571428571428571,kuTZjru3VL
6,MS,easy,3,NA,1,kuTZjru3VL
6,MS,medium,5,NA,1,kuTZjru3VL
6,MS,hard,5,NA,0.7142857142857143,kuTZjru3VL
7,MS,easy,3,NA,1,kuTZjru3VL
7,MS,medium,5,NA,1,kuTZjru3VL
7,MS,hard,7,NA,1,kuTZjru3VL
8,MS,easy,3,NA,1,kuTZjru3VL
8,MS,medium,5,NA,1,kuTZjru3VL
8,MS,hard,4,NA,0.5714285714285714,kuTZjru3VL
9,MS,easy,3,NA,1,kuTZjru3VL
9,MS,medium,5,NA,1,kuTZjru3VL
9,MS,hard,6,NA,0.8571428571428571,kuTZjru3VL
10,MS,easy,3,NA,1,kuTZjru3VL
10,MS,medium,5,NA,1,kuTZjru3VL
10,MS,hard,6,NA,0.8571428571428571,kuTZjru3VL
11,MS,easy,3,NA,1,kuTZjru3VL
11,MS,medium,5,NA,1,kuTZjru3VL
11,MS,hard,5,NA,0.7142857142857143,kuTZjru3VL
12,MS,easy,3,NA,1,kuTZjru3VL
12,MS,medium,5,NA,1,kuTZjru3VL
12,MS,hard,5,NA,0.7142857142857143,kuTZjru3VL
13,MS,easy,3,NA,1,kuTZjru3VL
13,MS,medium,5,NA,1,kuTZjru3VL
13,MS,hard,7,NA,1,kuTZjru3VL
14,MS,easy,3,NA,1,kuTZjru3VL
14,MS,medium,5,NA,1,kuTZjru3VL
14,MS,hard,5,NA,0.7142857142857143,kuTZjru3VL
15,MS,easy,3,NA,1,kuTZjru3VL
15,MS,medium,5,NA,1,kuTZjru3VL
15,MS,hard,7,NA,1,kuTZjru3VL
16,MS,easy,3,NA,1,kuTZjru3VL
16,MS,medium,5,NA,1,kuTZjru3VL
16,MS,hard,7,NA,1,kuTZjru3VL
1,MS,easy,3,NA,1,antN5ck5Ic
1,MS,medium,5,NA,1,antN5ck5Ic
1,MS,hard,5,NA,0.7142857142857143,antN5ck5Ic
2,MS,easy,3,NA,1,antN5ck5Ic
2,MS,medium,5,NA,1,antN5ck5Ic
2,MS,hard,5,NA,0.7142857142857143,antN5ck5Ic
3,MS,easy,3,NA,1,antN5ck5Ic
3,MS,medium,5,NA,1,antN5ck5Ic
3,MS,hard,5,NA,0.7142857142857143,antN5ck5Ic
4,MS,easy,3,NA,1,antN5ck5Ic
4,MS,medium,5,NA,1,antN5ck5Ic
4,MS,hard,6,NA,0.8571428571428571,antN5ck5Ic
5,MS,easy,3,NA,1,antN5ck5Ic
5,MS,medium,5,NA,1,antN5ck5Ic
5,MS,hard,2,NA,0.2857142857142857,antN5ck5Ic
6,MS,easy,3,NA,1,antN5ck5Ic
6,MS,medium,5,NA,1,antN5ck5Ic
6,MS,hard,5,NA,0.7142857142857143,antN5ck5Ic
7,MS,easy,3,NA,1,antN5ck5Ic
7,MS,medium,5,NA,1,antN5ck5Ic
7,MS,hard,5,NA,0.7142857142857143,antN5ck5Ic
8,MS,easy,3,NA,1,antN5ck5Ic
8,MS,medium,5,NA,1,antN5ck5Ic
8,MS,hard,6,NA,0.8571428571428571,antN5ck5Ic
9,MS,easy,3,NA,1,antN5ck5Ic
9,MS,medium,4,NA,0.8,antN5ck5Ic
9,MS,hard,4,NA,0.5714285714285714,antN5ck5Ic
10,MS,easy,3,NA,1,antN5ck5Ic
10,MS,medium,5,NA,1,antN5ck5Ic
10,MS,hard,5,NA,0.7142857142857143,antN5ck5Ic
11,MS,easy,3,NA,1,antN5ck5Ic
11,MS,medium,5,NA,1,antN5ck5Ic
11,MS,hard,4,NA,0.5714285714285714,antN5ck5Ic
12,MS,easy,3,NA,1,antN5ck5Ic
12,MS,medium,5,NA,1,antN5ck5Ic
12,MS,hard,4,NA,0.5714285714285714,antN5ck5Ic
13,MS,easy,3,NA,1,antN5ck5Ic
13,MS,medium,5,NA,1,antN5ck5Ic
13,MS,hard,5,NA,0.7142857142857143,antN5ck5Ic
14,MS,easy,3,NA,1,antN5ck5Ic
14,MS,medium,5,NA,1,antN5ck5Ic
14,MS,hard,6,NA,0.8571428571428571,antN5ck5Ic
15,MS,easy,3,NA,1,antN5ck5Ic
15,MS,medium,4,NA,0.8,antN5ck5Ic
15,MS,hard,6,NA,0.8571428571428571,antN5ck5Ic
16,MS,easy,3,NA,1,antN5ck5Ic
16,MS,medium,5,NA,1,antN5ck5Ic
16,MS,hard,5,NA,0.7142857142857143,antN5ck5Ic
1,MS,easy,3,NA,1,lqSj6DxkoP
1,MS,medium,4,NA,0.8,lqSj6DxkoP
1,MS,hard,5,NA,0.7142857142857143,lqSj6DxkoP
2,MS,easy,3,NA,1,lqSj6DxkoP
2,MS,medium,5,NA,1,lqSj6DxkoP
2,MS,hard,7,NA,1,lqSj6DxkoP
3,MS,easy,3,NA,1,lqSj6DxkoP
3,MS,medium,4,NA,0.8,lqSj6DxkoP
3,MS,hard,7,NA,1,lqSj6DxkoP
4,MS,easy,3,NA,1,lqSj6DxkoP
4,MS,medium,5,NA,1,lqSj6DxkoP
4,MS,hard,6,NA,0.8571428571428571,lqSj6DxkoP
5,MS,easy,3,NA,1,lqSj6DxkoP
5,MS,medium,5,NA,1,lqSj6DxkoP
5,MS,hard,6,NA,0.8571428571428571,lqSj6DxkoP
6,MS,easy,3,NA,1,lqSj6DxkoP
6,MS,medium,5,NA,1,lqSj6DxkoP
6,MS,hard,6,NA,0.8571428571428571,lqSj6DxkoP
7,MS,easy,3,NA,1,lqSj6DxkoP
7,MS,medium,5,NA,1,lqSj6DxkoP
7,MS,hard,6,NA,0.8571428571428571,lqSj6DxkoP
8,MS,easy,3,NA,1,lqSj6DxkoP
8,MS,medium,5,NA,1,lqSj6DxkoP
8,MS,hard,7,NA,1,lqSj6DxkoP
9,MS,easy,3,NA,1,lqSj6DxkoP
9,MS,medium,5,NA,1,lqSj6DxkoP
9,MS,hard,5,NA,0.7142857142857143,lqSj6DxkoP
10,MS,easy,3,NA,1,lqSj6DxkoP
10,MS,medium,4,NA,0.8,lqSj6DxkoP
10,MS,hard,6,NA,0.8571428571428571,lqSj6DxkoP
11,MS,easy,3,NA,1,lqSj6DxkoP
11,MS,medium,5,NA,1,lqSj6DxkoP
11,MS,hard,6,NA,0.8571428571428571,lqSj6DxkoP
12,MS,easy,3,NA,1,lqSj6DxkoP
12,MS,medium,5,NA,1,lqSj6DxkoP
12,MS,hard,5,NA,0.7142857142857143,lqSj6DxkoP
13,MS,easy,3,NA,1,lqSj6DxkoP
13,MS,medium,5,NA,1,lqSj6DxkoP
13,MS,hard,6,NA,0.8571428571428571,lqSj6DxkoP
14,MS,easy,3,NA,1,lqSj6DxkoP
14,MS,medium,5,NA,1,lqSj6DxkoP
14,MS,hard,4,NA,0.5714285714285714,lqSj6DxkoP
15,MS,easy,3,NA,1,lqSj6DxkoP
15,MS,medium,5,NA,1,lqSj6DxkoP
15,MS,hard,5,NA,0.7142857142857143,lqSj6DxkoP
16,MS,easy,3,NA,1,lqSj6DxkoP
16,MS,medium,5,NA,1,lqSj6DxkoP
16,MS,hard,6,NA,0.8571428571428571,lqSj6DxkoP
1,MS,easy,3,NA,1,urmN2MGqMI
1,MS,medium,4,NA,0.8,urmN2MGqMI
1,MS,hard,3,NA,0.42857142857142855,urmN2MGqMI
2,MS,easy,3,NA,1,urmN2MGqMI
2,MS,medium,5,NA,1,urmN2MGqMI
2,MS,hard,7,NA,1,urmN2MGqMI
3,MS,easy,3,NA,1,urmN2MGqMI
3,MS,medium,5,NA,1,urmN2MGqMI
3,MS,hard,7,NA,1,urmN2MGqMI
4,MS,easy,3,NA,1,urmN2MGqMI
4,MS,medium,4,NA,0.8,urmN2MGqMI
4,MS,hard,5,NA,0.7142857142857143,urmN2MGqMI
5,MS,easy,3,NA,1,urmN2MGqMI
5,MS,medium,4,NA,0.8,urmN2MGqMI
5,MS,hard,6,NA,0.8571428571428571,urmN2MGqMI
6,MS,easy,3,NA,1,urmN2MGqMI
6,MS,medium,4,NA,0.8,urmN2MGqMI
6,MS,hard,3,NA,0.42857142857142855,urmN2MGqMI
7,MS,easy,3,NA,1,urmN2MGqMI
7,MS,medium,4,NA,0.8,urmN2MGqMI
7,MS,hard,3,NA,0.42857142857142855,urmN2MGqMI
8,MS,easy,3,NA,1,urmN2MGqMI
8,MS,medium,4,NA,0.8,urmN2MGqMI
8,MS,hard,5,NA,0.7142857142857143,urmN2MGqMI
9,MS,easy,3,NA,1,urmN2MGqMI
9,MS,medium,5,NA,1,urmN2MGqMI
9,MS,hard,4,NA,0.5714285714285714,urmN2MGqMI
10,MS,easy,3,NA,1,urmN2MGqMI
10,MS,medium,4,NA,0.8,urmN2MGqMI
10,MS,hard,4,NA,0.5714285714285714,urmN2MGqMI
11,MS,easy,3,NA,1,urmN2MGqMI
11,MS,medium,5,NA,1,urmN2MGqMI
11,MS,hard,4,NA,0.5714285714285714,urmN2MGqMI
12,MS,easy,3,NA,1,urmN2MGqMI
12,MS,medium,5,NA,1,urmN2MGqMI
12,MS,hard,6,NA,0.8571428571428571,urmN2MGqMI
13,MS,easy,3,NA,1,urmN2MGqMI
13,MS,medium,4,NA,0.8,urmN2MGqMI
13,MS,hard,4,NA,0.5714285714285714,urmN2MGqMI
14,MS,easy,3,NA,1,urmN2MGqMI
14,MS,medium,4,NA,0.8,urmN2MGqMI
14,MS,hard,5,NA,0.7142857142857143,urmN2MGqMI
15,MS,easy,3,NA,1,urmN2MGqMI
15,MS,medium,4,NA,0.8,urmN2MGqMI
15,MS,hard,5,NA,0.7142857142857143,urmN2MGqMI
16,MS,easy,2,NA,0.6666666666666666,urmN2MGqMI
16,MS,medium,5,NA,1,urmN2MGqMI
16,MS,hard,2,NA,0.2857142857142857,urmN2MGqMI
1,MS,easy,3,11.8253,1,d51zamtky2
1,MS,medium,5,19.7908,1,d51zamtky2
1,MS,hard,4,12.6059,0.5714285714285714,d51zamtky2
2,MS,easy,3,12.6446,1,d51zamtky2
2,MS,medium,5,15.6936,1,d51zamtky2
2,MS,hard,4,13.7943,0.5714285714285714,d51zamtky2
3,MS,easy,3,10.4458,1,d51zamtky2
3,MS,medium,3,16.7931,0.6,d51zamtky2
3,MS,hard,3,16.7605,0.42857142857142855,d51zamtky2
4,MS,easy,3,10.4791,1,d51zamtky2
4,MS,medium,5,16.2605,1,d51zamtky2
4,MS,hard,2,7.9466,0.2857142857142857,d51zamtky2
5,MS,easy,3,13.1775,1,d51zamtky2
5,MS,medium,4,19.5325,0.8,d51zamtky2
5,MS,hard,2,10.779,0.2857142857142857,d51zamtky2
6,MS,easy,3,8.2468,1,d51zamtky2
6,MS,medium,4,16.1002,0.8,d51zamtky2
6,MS,hard,5,15.7434,0.7142857142857143,d51zamtky2
7,MS,easy,3,8.3964,1,d51zamtky2
7,MS,medium,4,15.1442,0.8,d51zamtky2
7,MS,hard,0,2.2138,0,d51zamtky2
8,MS,easy,3,9.2637,1,d51zamtky2
8,MS,medium,5,19.8414,1,d51zamtky2
8,MS,hard,5,16.485,0.7142857142857143,d51zamtky2
9,MS,easy,3,8.0133,1,d51zamtky2
9,MS,medium,3,16.2098,0.6,d51zamtky2
9,MS,hard,3,11.8607,0.42857142857142855,d51zamtky2
10,MS,easy,3,9.1961,1,d51zamtky2
10,MS,medium,3,15.0268,0.6,d51zamtky2
10,MS,hard,2,13.9769,0.2857142857142857,d51zamtky2
11,MS,easy,3,9.5289,1,d51zamtky2
11,MS,medium,4,16.2113,0.8,d51zamtky2
11,MS,hard,2,6.171,0.2857142857142857,d51zamtky2
12,MS,easy,3,8.9966,1,d51zamtky2
12,MS,medium,4,13.0856,0.8,d51zamtky2
12,MS,hard,5,24.3906,0.7142857142857143,d51zamtky2
13,MS,easy,3,7.3805,1,d51zamtky2
13,MS,medium,4,14.8259,0.8,d51zamtky2
13,MS,hard,5,16.9603,0.7142857142857143,d51zamtky2
14,MS,easy,3,9.9794,1,d51zamtky2
14,MS,medium,5,15.860900000000001,1,d51zamtky2
14,MS,hard,5,14.6346,0.7142857142857143,d51zamtky2
15,MS,easy,3,8.3869,1,d51zamtky2
15,MS,medium,1,6.5302,0.2,d51zamtky2
15,MS,hard,5,16.2762,0.7142857142857143,d51zamtky2
16,MS,easy,3,8.7123,1,d51zamtky2
16,MS,medium,4,14.5177,0.8,d51zamtky2
16,MS,hard,5,16.936,0.7142857142857143,d51zamtky2
1,MS,easy,3,7.9934,1,EgEJAn9pKN
1,MS,medium,4,11.0499,0.8,EgEJAn9pKN
1,MS,hard,3,11.7783,0.42857142857142855,EgEJAn9pKN
2,MS,easy,3,8.8821,1,EgEJAn9pKN
2,MS,medium,3,15.3062,0.6,EgEJAn9pKN
2,MS,hard,7,22.1896,1,EgEJAn9pKN
3,MS,easy,3,10.701,1,EgEJAn9pKN
3,MS,medium,3,8.157,0.6,EgEJAn9pKN
3,MS,hard,4,10.6175,0.5714285714285714,EgEJAn9pKN
4,MS,easy,3,9.0011,1,EgEJAn9pKN
4,MS,medium,5,16.8512,1,EgEJAn9pKN
4,MS,hard,5,14.9159,0.7142857142857143,EgEJAn9pKN
5,MS,easy,3,8.9922,1,EgEJAn9pKN
5,MS,medium,4,8.7766,0.8,EgEJAn9pKN
5,MS,hard,3,13.2289,0.42857142857142855,EgEJAn9pKN
6,MS,easy,3,6.5128,1,EgEJAn9pKN
6,MS,medium,5,10.3512,1,EgEJAn9pKN
6,MS,hard,3,7.9803,0.42857142857142855,EgEJAn9pKN
7,MS,easy,2,6.0958,0.6666666666666666,EgEJAn9pKN
7,MS,medium,3,13.0296,0.6,EgEJAn9pKN
7,MS,hard,5,20.5436,0.7142857142857143,EgEJAn9pKN
8,MS,easy,2,9.2307,0.6666666666666666,EgEJAn9pKN
8,MS,medium,5,11.6316,1,EgEJAn9pKN
8,MS,hard,5,12.0511,0.7142857142857143,EgEJAn9pKN
9,MS,easy,3,9.0423,1,EgEJAn9pKN
9,MS,medium,5,11.9464,1,EgEJAn9pKN
9,MS,hard,4,11.0677,0.5714285714285714,EgEJAn9pKN
10,MS,easy,3,7.7916,1,EgEJAn9pKN
10,MS,medium,5,13.6299,1,EgEJAn9pKN
10,MS,hard,4,16.6547,0.5714285714285714,EgEJAn9pKN
11,MS,easy,2,11.647,0.6666666666666666,EgEJAn9pKN
11,MS,medium,4,13.2077,0.8,EgEJAn9pKN
11,MS,hard,5,12.5025,0.7142857142857143,EgEJAn9pKN
12,MS,easy,3,6.7569,1,EgEJAn9pKN
12,MS,medium,5,9.4324,1,EgEJAn9pKN
12,MS,hard,6,16.4001,0.8571428571428571,EgEJAn9pKN
13,MS,easy,3,9.1768,1,EgEJAn9pKN
13,MS,medium,5,12.9963,1,EgEJAn9pKN
13,MS,hard,6,16.3001,0.8571428571428571,EgEJAn9pKN
14,MS,easy,3,5.689,1,EgEJAn9pKN
14,MS,medium,5,12.4689,1,EgEJAn9pKN
14,MS,hard,5,12.1329,0.7142857142857143,EgEJAn9pKN
15,MS,easy,2,6.6074,0.6666666666666666,EgEJAn9pKN
15,MS,medium,5,11.4604,1,EgEJAn9pKN
15,MS,hard,5,12.8458,0.7142857142857143,EgEJAn9pKN
16,MS,easy,3,8.2249,1,EgEJAn9pKN
16,MS,medium,4,20.0065,0.8,EgEJAn9pKN
16,MS,hard,5,10.9394,0.7142857142857143,EgEJAn9pKN
1,MS,easy,3,NA,1,W3y75sVKt1
1,MS,medium,5,NA,1,W3y75sVKt1
1,MS,hard,6,NA,0.8571428571428571,W3y75sVKt1
2,MS,easy,3,NA,1,W3y75sVKt1
2,MS,medium,5,NA,1,W3y75sVKt1
2,MS,hard,5,NA,0.7142857142857143,W3y75sVKt1
3,MS,easy,3,NA,1,W3y75sVKt1
3,MS,medium,5,NA,1,W3y75sVKt1
3,MS,hard,4,NA,0.5714285714285714,W3y75sVKt1
4,MS,easy,3,NA,1,W3y75sVKt1
4,MS,medium,5,NA,1,W3y75sVKt1
4,MS,hard,5,NA,0.7142857142857143,W3y75sVKt1
5,MS,easy,3,NA,1,W3y75sVKt1
5,MS,medium,5,NA,1,W3y75sVKt1
5,MS,hard,6,NA,0.8571428571428571,W3y75sVKt1
6,MS,easy,3,NA,1,W3y75sVKt1
6,MS,medium,5,NA,1,W3y75sVKt1
6,MS,hard,6,NA,0.8571428571428571,W3y75sVKt1
7,MS,easy,3,NA,1,W3y75sVKt1
7,MS,medium,5,NA,1,W3y75sVKt1
7,MS,hard,4,NA,0.5714285714285714,W3y75sVKt1
8,MS,easy,3,NA,1,W3y75sVKt1
8,MS,medium,5,NA,1,W3y75sVKt1
8,MS,hard,5,NA,0.7142857142857143,W3y75sVKt1
9,MS,easy,3,NA,1,W3y75sVKt1
9,MS,medium,5,NA,1,W3y75sVKt1
9,MS,hard,6,NA,0.8571428571428571,W3y75sVKt1
10,MS,easy,3,NA,1,W3y75sVKt1
10,MS,medium,5,NA,1,W3y75sVKt1
10,MS,hard,6,NA,0.8571428571428571,W3y75sVKt1
11,MS,easy,3,NA,1,W3y75sVKt1
11,MS,medium,5,NA,1,W3y75sVKt1
11,MS,hard,5,NA,0.7142857142857143,W3y75sVKt1
12,MS,easy,3,NA,1,W3y75sVKt1
12,MS,medium,5,NA,1,W3y75sVKt1
12,MS,hard,5,NA,0.7142857142857143,W3y75sVKt1
13,MS,easy,3,NA,1,W3y75sVKt1
13,MS,medium,5,NA,1,W3y75sVKt1
13,MS,hard,7,NA,1,W3y75sVKt1
14,MS,easy,3,NA,1,W3y75sVKt1
14,MS,medium,5,NA,1,W3y75sVKt1
14,MS,hard,6,NA,0.8571428571428571,W3y75sVKt1
15,MS,easy,3,NA,1,W3y75sVKt1
15,MS,medium,5,NA,1,W3y75sVKt1
15,MS,hard,4,NA,0.5714285714285714,W3y75sVKt1
16,MS,easy,3,NA,1,W3y75sVKt1
16,MS,medium,5,NA,1,W3y75sVKt1
16,MS,hard,5,NA,0.7142857142857143,W3y75sVKt1
1,MS,easy,3,NA,1,soqMs9Hfya
1,MS,medium,4,NA,0.8,soqMs9Hfya
1,MS,hard,5,NA,0.7142857142857143,soqMs9Hfya
2,MS,easy,3,NA,1,soqMs9Hfya
2,MS,medium,5,NA,1,soqMs9Hfya
2,MS,hard,3,NA,0.42857142857142855,soqMs9Hfya
3,MS,easy,3,NA,1,soqMs9Hfya
3,MS,medium,5,NA,1,soqMs9Hfya
3,MS,hard,6,NA,0.8571428571428571,soqMs9Hfya
4,MS,easy,3,NA,1,soqMs9Hfya
4,MS,medium,5,NA,1,soqMs9Hfya
4,MS,hard,5,NA,0.7142857142857143,soqMs9Hfya
5,MS,easy,3,NA,1,soqMs9Hfya
5,MS,medium,5,NA,1,soqMs9Hfya
5,MS,hard,5,NA,0.7142857142857143,soqMs9Hfya
6,MS,easy,3,NA,1,soqMs9Hfya
6,MS,medium,5,NA,1,soqMs9Hfya
6,MS,hard,6,NA,0.8571428571428571,soqMs9Hfya
7,MS,easy,3,NA,1,soqMs9Hfya
7,MS,medium,5,NA,1,soqMs9Hfya
7,MS,hard,7,NA,1,soqMs9Hfya
8,MS,easy,3,NA,1,soqMs9Hfya
8,MS,medium,5,NA,1,soqMs9Hfya
8,MS,hard,5,NA,0.7142857142857143,soqMs9Hfya
9,MS,easy,3,NA,1,soqMs9Hfya
9,MS,medium,5,NA,1,soqMs9Hfya
9,MS,hard,4,NA,0.5714285714285714,soqMs9Hfya
10,MS,easy,3,NA,1,soqMs9Hfya
10,MS,medium,5,NA,1,soqMs9Hfya
10,MS,hard,4,NA,0.5714285714285714,soqMs9Hfya
11,MS,easy,3,NA,1,soqMs9Hfya
11,MS,medium,5,NA,1,soqMs9Hfya
11,MS,hard,5,NA,0.7142857142857143,soqMs9Hfya
12,MS,easy,3,NA,1,soqMs9Hfya
12,MS,medium,4,NA,0.8,soqMs9Hfya
12,MS,hard,5,NA,0.7142857142857143,soqMs9Hfya
13,MS,easy,3,NA,1,soqMs9Hfya
13,MS,medium,4,NA,0.8,soqMs9Hfya
13,MS,hard,6,NA,0.8571428571428571,soqMs9Hfya
14,MS,easy,3,NA,1,soqMs9Hfya
14,MS,medium,5,NA,1,soqMs9Hfya
14,MS,hard,6,NA,0.8571428571428571,soqMs9Hfya
15,MS,easy,2,NA,0.6666666666666666,soqMs9Hfya
15,MS,medium,5,NA,1,soqMs9Hfya
15,MS,hard,6,NA,0.8571428571428571,soqMs9Hfya
16,MS,easy,3,NA,1,soqMs9Hfya
16,MS,medium,4,NA,0.8,soqMs9Hfya
16,MS,hard,6,NA,0.8571428571428571,soqMs9Hfya
1,MS,easy,3,NA,1,YuaQwhP1ZU
1,MS,medium,4,NA,0.8,YuaQwhP1ZU
1,MS,hard,4,NA,0.5714285714285714,YuaQwhP1ZU
2,MS,easy,3,NA,1,YuaQwhP1ZU
2,MS,medium,5,NA,1,YuaQwhP1ZU
2,MS,hard,6,NA,0.8571428571428571,YuaQwhP1ZU
3,MS,easy,3,NA,1,YuaQwhP1ZU
3,MS,medium,5,NA,1,YuaQwhP1ZU
3,MS,hard,6,NA,0.8571428571428571,YuaQwhP1ZU
4,MS,easy,3,NA,1,YuaQwhP1ZU
4,MS,medium,5,NA,1,YuaQwhP1ZU
4,MS,hard,7,NA,1,YuaQwhP1ZU
5,MS,easy,3,NA,1,YuaQwhP1ZU
5,MS,medium,5,NA,1,YuaQwhP1ZU
5,MS,hard,6,NA,0.8571428571428571,YuaQwhP1ZU
6,MS,easy,3,NA,1,YuaQwhP1ZU
6,MS,medium,5,NA,1,YuaQwhP1ZU
6,MS,hard,5,NA,0.7142857142857143,YuaQwhP1ZU
7,MS,easy,3,NA,1,YuaQwhP1ZU
7,MS,medium,4,NA,0.8,YuaQwhP1ZU
7,MS,hard,5,NA,0.7142857142857143,YuaQwhP1ZU
8,MS,easy,3,NA,1,YuaQwhP1ZU
8,MS,medium,5,NA,1,YuaQwhP1ZU
8,MS,hard,6,NA,0.8571428571428571,YuaQwhP1ZU
9,MS,easy,3,NA,1,YuaQwhP1ZU
9,MS,medium,5,NA,1,YuaQwhP1ZU
9,MS,hard,7,NA,1,YuaQwhP1ZU
10,MS,easy,3,NA,1,YuaQwhP1ZU
10,MS,medium,5,NA,1,YuaQwhP1ZU
10,MS,hard,5,NA,0.7142857142857143,YuaQwhP1ZU
11,MS,easy,3,NA,1,YuaQwhP1ZU
11,MS,medium,5,NA,1,YuaQwhP1ZU
11,MS,hard,7,NA,1,YuaQwhP1ZU
12,MS,easy,2,NA,0.6666666666666666,YuaQwhP1ZU
12,MS,medium,5,NA,1,YuaQwhP1ZU
12,MS,hard,6,NA,0.8571428571428571,YuaQwhP1ZU
13,MS,easy,3,NA,1,YuaQwhP1ZU
13,MS,medium,5,NA,1,YuaQwhP1ZU
13,MS,hard,7,NA,1,YuaQwhP1ZU
14,MS,easy,3,NA,1,YuaQwhP1ZU
14,MS,medium,4,NA,0.8,YuaQwhP1ZU
14,MS,hard,7,NA,1,YuaQwhP1ZU
15,MS,easy,3,NA,1,YuaQwhP1ZU
15,MS,medium,4,NA,0.8,YuaQwhP1ZU
15,MS,hard,7,NA,1,YuaQwhP1ZU
16,MS,easy,3,NA,1,YuaQwhP1ZU
16,MS,medium,5,NA,1,YuaQwhP1ZU
16,MS,hard,7,NA,1,YuaQwhP1ZU
1,MS,easy,3,10.61,1,2vlCeeOoXs
1,MS,medium,5,12.463,1,2vlCeeOoXs
1,MS,hard,6,15.328,0.8571428571428571,2vlCeeOoXs
2,MS,easy,3,6.073,1,2vlCeeOoXs
2,MS,medium,5,10.797,1,2vlCeeOoXs
2,MS,hard,5,19.329,0.7142857142857143,2vlCeeOoXs
3,MS,easy,3,5.831,1,2vlCeeOoXs
3,MS,medium,5,12.563,1,2vlCeeOoXs
3,MS,hard,4,15.463,0.5714285714285714,2vlCeeOoXs
4,MS,easy,3,8.463,1,2vlCeeOoXs
4,MS,medium,5,10.497,1,2vlCeeOoXs
4,MS,hard,7,13.829,1,2vlCeeOoXs
5,MS,easy,3,8.364,1,2vlCeeOoXs
5,MS,medium,5,11.363,1,2vlCeeOoXs
5,MS,hard,7,12.596,1,2vlCeeOoXs
6,MS,easy,3,5.799,1,2vlCeeOoXs
6,MS,medium,5,13.98,1,2vlCeeOoXs
6,MS,hard,4,14.495,0.5714285714285714,2vlCeeOoXs
7,MS,easy,3,6.762,1,2vlCeeOoXs
7,MS,medium,5,12.331,1,2vlCeeOoXs
7,MS,hard,6,19.528,0.8571428571428571,2vlCeeOoXs
8,MS,easy,3,7.164,1,2vlCeeOoXs
8,MS,medium,5,13.725,1,2vlCeeOoXs
8,MS,hard,7,14.121,1,2vlCeeOoXs
9,MS,easy,3,6.864,1,2vlCeeOoXs
9,MS,medium,5,12.946,1,2vlCeeOoXs
9,MS,hard,7,14.03,1,2vlCeeOoXs
10,MS,easy,3,5.797,1,2vlCeeOoXs
10,MS,medium,5,13.98,1,2vlCeeOoXs
10,MS,hard,7,17.828,1,2vlCeeOoXs
11,MS,easy,3,6.66,1,2vlCeeOoXs
11,MS,medium,5,10.263,1,2vlCeeOoXs
11,MS,hard,7,28.062,1,2vlCeeOoXs
12,MS,easy,3,9.879,1,2vlCeeOoXs
12,MS,medium,5,14.029,1,2vlCeeOoXs
12,MS,hard,7,14.215,1,2vlCeeOoXs
13,MS,easy,3,6.499,1,2vlCeeOoXs
13,MS,medium,5,10.963,1,2vlCeeOoXs
13,MS,hard,6,16.093,0.8571428571428571,2vlCeeOoXs
14,MS,easy,3,9.226,1,2vlCeeOoXs
14,MS,medium,5,10.498,1,2vlCeeOoXs
14,MS,hard,7,14.579,1,2vlCeeOoXs
15,MS,easy,3,6.481,1,2vlCeeOoXs
15,MS,medium,5,12.978,1,2vlCeeOoXs
15,MS,hard,6,15.596,0.8571428571428571,2vlCeeOoXs
16,MS,easy,3,6.963,1,2vlCeeOoXs
16,MS,medium,4,12.429,0.8,2vlCeeOoXs
16,MS,hard,4,9.765,0.5714285714285714,2vlCeeOoXs
1,MS,easy,3,NA,1,KCZtWafWV1
1,MS,medium,3,NA,0.6,KCZtWafWV1
1,MS,hard,5,NA,0.7142857142857143,KCZtWafWV1
2,MS,easy,3,NA,1,KCZtWafWV1
2,MS,medium,3,NA,0.6,KCZtWafWV1
2,MS,hard,6,NA,0.8571428571428571,KCZtWafWV1
3,MS,easy,3,NA,1,KCZtWafWV1
3,MS,medium,5,NA,1,KCZtWafWV1
3,MS,hard,4,NA,0.5714285714285714,KCZtWafWV1
4,MS,easy,3,NA,1,KCZtWafWV1
4,MS,medium,5,NA,1,KCZtWafWV1
4,MS,hard,5,NA,0.7142857142857143,KCZtWafWV1
5,MS,easy,3,NA,1,KCZtWafWV1
5,MS,medium,5,NA,1,KCZtWafWV1
5,MS,hard,5,NA,0.7142857142857143,KCZtWafWV1
6,MS,easy,3,NA,1,KCZtWafWV1
6,MS,medium,4,NA,0.8,KCZtWafWV1
6,MS,hard,3,NA,0.42857142857142855,KCZtWafWV1
7,MS,easy,3,NA,1,KCZtWafWV1
7,MS,medium,4,NA,0.8,KCZtWafWV1
7,MS,hard,4,NA,0.5714285714285714,KCZtWafWV1
8,MS,easy,3,NA,1,KCZtWafWV1
8,MS,medium,4,NA,0.8,KCZtWafWV1
8,MS,hard,5,NA,0.7142857142857143,KCZtWafWV1
9,MS,easy,3,NA,1,KCZtWafWV1
9,MS,medium,5,NA,1,KCZtWafWV1
9,MS,hard,4,NA,0.5714285714285714,KCZtWafWV1
10,MS,easy,3,NA,1,KCZtWafWV1
10,MS,medium,5,NA,1,KCZtWafWV1
10,MS,hard,4,NA,0.5714285714285714,KCZtWafWV1
11,MS,easy,3,NA,1,KCZtWafWV1
11,MS,medium,4,NA,0.8,KCZtWafWV1
11,MS,hard,4,NA,0.5714285714285714,KCZtWafWV1
12,MS,easy,3,NA,1,KCZtWafWV1
12,MS,medium,4,NA,0.8,KCZtWafWV1
12,MS,hard,4,NA,0.5714285714285714,KCZtWafWV1
13,MS,easy,3,NA,1,KCZtWafWV1
13,MS,medium,5,NA,1,KCZtWafWV1
13,MS,hard,2,NA,0.2857142857142857,KCZtWafWV1
14,MS,easy,3,NA,1,KCZtWafWV1
14,MS,medium,5,NA,1,KCZtWafWV1
14,MS,hard,3,NA,0.42857142857142855,KCZtWafWV1
15,MS,easy,3,NA,1,KCZtWafWV1
15,MS,medium,5,NA,1,KCZtWafWV1
15,MS,hard,4,NA,0.5714285714285714,KCZtWafWV1
16,MS,easy,3,NA,1,KCZtWafWV1
16,MS,medium,5,NA,1,KCZtWafWV1
16,MS,hard,3,NA,0.42857142857142855,KCZtWafWV1
1,MS,easy,3,NA,1,n5pHkx5qnN
1,MS,medium,3,NA,0.6,n5pHkx5qnN
1,MS,hard,5,NA,0.7142857142857143,n5pHkx5qnN
2,MS,easy,3,NA,1,n5pHkx5qnN
2,MS,medium,4,NA,0.8,n5pHkx5qnN
2,MS,hard,3,NA,0.42857142857142855,n5pHkx5qnN
3,MS,easy,3,NA,1,n5pHkx5qnN
3,MS,medium,5,NA,1,n5pHkx5qnN
3,MS,hard,6,NA,0.8571428571428571,n5pHkx5qnN
4,MS,easy,3,NA,1,n5pHkx5qnN
4,MS,medium,5,NA,1,n5pHkx5qnN
4,MS,hard,4,NA,0.5714285714285714,n5pHkx5qnN
5,MS,easy,3,NA,1,n5pHkx5qnN
5,MS,medium,3,NA,0.6,n5pHkx5qnN
5,MS,hard,5,NA,0.7142857142857143,n5pHkx5qnN
6,MS,easy,2,NA,0.6666666666666666,n5pHkx5qnN
6,MS,medium,4,NA,0.8,n5pHkx5qnN
6,MS,hard,4,NA,0.5714285714285714,n5pHkx5qnN
7,MS,easy,3,NA,1,n5pHkx5qnN
7,MS,medium,3,NA,0.6,n5pHkx5qnN
7,MS,hard,4,NA,0.5714285714285714,n5pHkx5qnN
8,MS,easy,3,NA,1,n5pHkx5qnN
8,MS,medium,5,NA,1,n5pHkx5qnN
8,MS,hard,5,NA,0.7142857142857143,n5pHkx5qnN
9,MS,easy,3,NA,1,n5pHkx5qnN
9,MS,medium,5,NA,1,n5pHkx5qnN
9,MS,hard,4,NA,0.5714285714285714,n5pHkx5qnN
10,MS,easy,3,NA,1,n5pHkx5qnN
10,MS,medium,4,NA,0.8,n5pHkx5qnN
10,MS,hard,5,NA,0.7142857142857143,n5pHkx5qnN
11,MS,easy,3,NA,1,n5pHkx5qnN
11,MS,medium,4,NA,0.8,n5pHkx5qnN
11,MS,hard,2,NA,0.2857142857142857,n5pHkx5qnN
12,MS,easy,3,NA,1,n5pHkx5qnN
12,MS,medium,3,NA,0.6,n5pHkx5qnN
12,MS,hard,3,NA,0.42857142857142855,n5pHkx5qnN
13,MS,easy,3,NA,1,n5pHkx5qnN
13,MS,medium,5,NA,1,n5pHkx5qnN
13,MS,hard,3,NA,0.42857142857142855,n5pHkx5qnN
14,MS,easy,3,NA,1,n5pHkx5qnN
14,MS,medium,4,NA,0.8,n5pHkx5qnN
14,MS,hard,0,NA,0,n5pHkx5qnN
15,MS,easy,3,NA,1,n5pHkx5qnN
15,MS,medium,5,NA,1,n5pHkx5qnN
15,MS,hard,2,NA,0.2857142857142857,n5pHkx5qnN
16,MS,easy,3,NA,1,n5pHkx5qnN
16,MS,medium,4,NA,0.8,n5pHkx5qnN
16,MS,hard,4,NA,0.5714285714285714,n5pHkx5qnN
1,MS,easy,3,13.8204,1,wgRo2jLpXH
1,MS,medium,5,41.589,1,wgRo2jLpXH
1,MS,hard,3,14.4623,0.42857142857142855,wgRo2jLpXH
2,MS,easy,3,14.1274,1,wgRo2jLpXH
2,MS,medium,3,18.925,0.6,wgRo2jLpXH
2,MS,hard,4,21.4905,0.5714285714285714,wgRo2jLpXH
3,MS,easy,3,11.7609,1,wgRo2jLpXH
3,MS,medium,5,22.225,1,wgRo2jLpXH
3,MS,hard,4,17.7936,0.5714285714285714,wgRo2jLpXH
4,MS,easy,3,13.2623,1,wgRo2jLpXH
4,MS,medium,3,21.6917,0.6,wgRo2jLpXH
4,MS,hard,3,15.427,0.42857142857142855,wgRo2jLpXH
5,MS,easy,3,10.83,1,wgRo2jLpXH
5,MS,medium,3,16.4267,0.6,wgRo2jLpXH
5,MS,hard,5,28.789,0.7142857142857143,wgRo2jLpXH
6,MS,easy,3,10.096,1,wgRo2jLpXH
6,MS,medium,4,15.6622,0.8,wgRo2jLpXH
6,MS,hard,5,21.0585,0.7142857142857143,wgRo2jLpXH
7,MS,easy,3,11.6286,1,wgRo2jLpXH
7,MS,medium,4,16.4608,0.8,wgRo2jLpXH
7,MS,hard,5,21.4248,0.7142857142857143,wgRo2jLpXH
8,MS,easy,3,11.3634,1,wgRo2jLpXH
8,MS,medium,4,16.9271,0.8,wgRo2jLpXH
8,MS,hard,5,19.1252,0.7142857142857143,wgRo2jLpXH
9,MS,easy,3,10.6312,1,wgRo2jLpXH
9,MS,medium,3,15.1599,0.6,wgRo2jLpXH
9,MS,hard,4,16.9913,0.5714285714285714,wgRo2jLpXH
10,MS,easy,3,13.096,1,wgRo2jLpXH
10,MS,medium,3,16.4939,0.6,wgRo2jLpXH
10,MS,hard,3,12.4283,0.42857142857142855,wgRo2jLpXH
11,MS,easy,3,10.7963,1,wgRo2jLpXH
11,MS,medium,4,24.9232,0.8,wgRo2jLpXH
11,MS,hard,3,10.9626,0.42857142857142855,wgRo2jLpXH
12,MS,easy,0,0.0158,0,wgRo2jLpXH
12,MS,medium,3,14.7607,0.6,wgRo2jLpXH
12,MS,hard,3,11.9611,0.42857142857142855,wgRo2jLpXH
13,MS,easy,3,13.4281,1,wgRo2jLpXH
13,MS,medium,3,14.3935,0.6,wgRo2jLpXH
13,MS,hard,5,21.1602,0.7142857142857143,wgRo2jLpXH
14,MS,easy,2,19.1592,0.6666666666666666,wgRo2jLpXH
14,MS,medium,4,13.7269,0.8,wgRo2jLpXH
14,MS,hard,2,10.7948,0.2857142857142857,wgRo2jLpXH
15,MS,easy,3,11.5277,1,wgRo2jLpXH
15,MS,medium,5,24.5571,1,wgRo2jLpXH
15,MS,hard,5,21.0592,0.7142857142857143,wgRo2jLpXH
16,MS,easy,3,11.9304,1,wgRo2jLpXH
16,MS,medium,5,28.6235,1,wgRo2jLpXH
16,MS,hard,4,19.1239,0.5714285714285714,wgRo2jLpXH
1,MS,easy,3,11.83,1,IMJ2Wgu1zI
1,MS,medium,4,21.9274,0.8,IMJ2Wgu1zI
1,MS,hard,5,18.8204,0.7142857142857143,IMJ2Wgu1zI
2,MS,easy,3,6.7482,1,IMJ2Wgu1zI
2,MS,medium,5,28.1936,1,IMJ2Wgu1zI
2,MS,hard,5,18.4125,0.7142857142857143,IMJ2Wgu1zI
3,MS,easy,2,562.1342,0.6666666666666666,IMJ2Wgu1zI
3,MS,medium,4,25.0106,0.8,IMJ2Wgu1zI
3,MS,hard,4,18.8792,0.5714285714285714,IMJ2Wgu1zI
4,MS,easy,3,43.8243,1,IMJ2Wgu1zI
4,MS,medium,5,302.955,1,IMJ2Wgu1zI
4,MS,hard,4,18.6293,0.5714285714285714,IMJ2Wgu1zI
5,MS,easy,3,11.7972,1,IMJ2Wgu1zI
5,MS,medium,4,55.887,0.8,IMJ2Wgu1zI
5,MS,hard,5,33.7254,0.7142857142857143,IMJ2Wgu1zI
6,MS,easy,3,8.2145,1,IMJ2Wgu1zI
6,MS,medium,5,17.7955,1,IMJ2Wgu1zI
6,MS,hard,5,29.1936,0.7142857142857143,IMJ2Wgu1zI
7,MS,easy,3,8.4146,1,IMJ2Wgu1zI
7,MS,medium,4,24.9279,0.8,IMJ2Wgu1zI
7,MS,hard,4,22.7284,0.5714285714285714,IMJ2Wgu1zI
8,MS,easy,3,25.7775,1,IMJ2Wgu1zI
8,MS,medium,5,22.0285,1,IMJ2Wgu1zI
8,MS,hard,5,63.2864,0.7142857142857143,IMJ2Wgu1zI
9,MS,easy,2,8.1646,0.6666666666666666,IMJ2Wgu1zI
9,MS,medium,4,18.4127,0.8,IMJ2Wgu1zI
9,MS,hard,5,39.9137,0.7142857142857143,IMJ2Wgu1zI
10,MS,easy,3,7.4811,1,IMJ2Wgu1zI
10,MS,medium,3,17.1461,0.6,IMJ2Wgu1zI
10,MS,hard,5,29.5437,0.7142857142857143,IMJ2Wgu1zI
11,MS,easy,3,7.1816,1,IMJ2Wgu1zI
11,MS,medium,4,16.6799,0.8,IMJ2Wgu1zI
11,MS,hard,3,25.5765,0.42857142857142855,IMJ2Wgu1zI
12,MS,easy,3,7.3482,1,IMJ2Wgu1zI
12,MS,medium,5,13.8804,1,IMJ2Wgu1zI
12,MS,hard,5,17.0352,0.7142857142857143,IMJ2Wgu1zI
13,MS,easy,3,8.0814,1,IMJ2Wgu1zI
13,MS,medium,5,13.8301,1,IMJ2Wgu1zI
13,MS,hard,5,14.5023,0.7142857142857143,IMJ2Wgu1zI
14,MS,easy,3,9.5979,1,IMJ2Wgu1zI
14,MS,medium,3,18.3905,0.6,IMJ2Wgu1zI
14,MS,hard,5,197.0756,0.7142857142857143,IMJ2Wgu1zI
15,MS,easy,3,10.0311,1,IMJ2Wgu1zI
15,MS,medium,4,26.9276,0.8,IMJ2Wgu1zI
15,MS,hard,5,57.4541,0.7142857142857143,IMJ2Wgu1zI
16,MS,easy,3,12.9306,1,IMJ2Wgu1zI
16,MS,medium,4,13.8629,0.8,IMJ2Wgu1zI
16,MS,hard,6,73.6843,0.8571428571428571,IMJ2Wgu1zI
1,MS,easy,3,NA,1,S5rOjASl3o
1,MS,medium,5,NA,1,S5rOjASl3o
1,MS,hard,6,NA,0.8571428571428571,S5rOjASl3o
2,MS,easy,3,NA,1,S5rOjASl3o
2,MS,medium,4,NA,0.8,S5rOjASl3o
2,MS,hard,2,NA,0.2857142857142857,S5rOjASl3o
3,MS,easy,3,NA,1,S5rOjASl3o
3,MS,medium,5,NA,1,S5rOjASl3o
3,MS,hard,4,NA,0.5714285714285714,S5rOjASl3o
4,MS,easy,3,NA,1,S5rOjASl3o
4,MS,medium,3,NA,0.6,S5rOjASl3o
4,MS,hard,6,NA,0.8571428571428571,S5rOjASl3o
5,MS,easy,3,NA,1,S5rOjASl3o
5,MS,medium,4,NA,0.8,S5rOjASl3o
5,MS,hard,5,NA,0.7142857142857143,S5rOjASl3o
6,MS,easy,3,NA,1,S5rOjASl3o
6,MS,medium,4,NA,0.8,S5rOjASl3o
6,MS,hard,5,NA,0.7142857142857143,S5rOjASl3o
7,MS,easy,3,NA,1,S5rOjASl3o
7,MS,medium,5,NA,1,S5rOjASl3o
7,MS,hard,4,NA,0.5714285714285714,S5rOjASl3o
8,MS,easy,3,NA,1,S5rOjASl3o
8,MS,medium,4,NA,0.8,S5rOjASl3o
8,MS,hard,5,NA,0.7142857142857143,S5rOjASl3o
9,MS,easy,3,NA,1,S5rOjASl3o
9,MS,medium,5,NA,1,S5rOjASl3o
9,MS,hard,5,NA,0.7142857142857143,S5rOjASl3o
10,MS,easy,3,NA,1,S5rOjASl3o
10,MS,medium,4,NA,0.8,S5rOjASl3o
10,MS,hard,2,NA,0.2857142857142857,S5rOjASl3o
11,MS,easy,3,NA,1,S5rOjASl3o
11,MS,medium,3,NA,0.6,S5rOjASl3o
11,MS,hard,4,NA,0.5714285714285714,S5rOjASl3o
12,MS,easy,3,NA,1,S5rOjASl3o
12,MS,medium,5,NA,1,S5rOjASl3o
12,MS,hard,6,NA,0.8571428571428571,S5rOjASl3o
13,MS,easy,3,NA,1,S5rOjASl3o
13,MS,medium,5,NA,1,S5rOjASl3o
13,MS,hard,4,NA,0.5714285714285714,S5rOjASl3o
14,MS,easy,3,NA,1,S5rOjASl3o
14,MS,medium,4,NA,0.8,S5rOjASl3o
14,MS,hard,6,NA,0.8571428571428571,S5rOjASl3o
15,MS,easy,3,NA,1,S5rOjASl3o
15,MS,medium,4,NA,0.8,S5rOjASl3o
15,MS,hard,5,NA,0.7142857142857143,S5rOjASl3o
16,MS,easy,3,NA,1,S5rOjASl3o
16,MS,medium,4,NA,0.8,S5rOjASl3o
16,MS,hard,2,NA,0.2857142857142857,S5rOjASl3o
1,MS,easy,3,NA,1,LMH4MBXVwL
1,MS,medium,5,NA,1,LMH4MBXVwL
1,MS,hard,5,NA,0.7142857142857143,LMH4MBXVwL
2,MS,easy,3,NA,1,LMH4MBXVwL
2,MS,medium,5,NA,1,LMH4MBXVwL
2,MS,hard,7,NA,1,LMH4MBXVwL
3,MS,easy,3,NA,1,LMH4MBXVwL
3,MS,medium,5,NA,1,LMH4MBXVwL
3,MS,hard,7,NA,1,LMH4MBXVwL
4,MS,easy,3,NA,1,LMH4MBXVwL
4,MS,medium,4,NA,0.8,LMH4MBXVwL
4,MS,hard,7,NA,1,LMH4MBXVwL
5,MS,easy,3,NA,1,LMH4MBXVwL
5,MS,medium,5,NA,1,LMH4MBXVwL
5,MS,hard,6,NA,0.8571428571428571,LMH4MBXVwL
6,MS,easy,3,NA,1,LMH4MBXVwL
6,MS,medium,4,NA,0.8,LMH4MBXVwL
6,MS,hard,4,NA,0.5714285714285714,LMH4MBXVwL
7,MS,easy,3,NA,1,LMH4MBXVwL
7,MS,medium,3,NA,0.6,LMH4MBXVwL
7,MS,hard,5,NA,0.7142857142857143,LMH4MBXVwL
8,MS,easy,3,NA,1,LMH4MBXVwL
8,MS,medium,5,NA,1,LMH4MBXVwL
8,MS,hard,6,NA,0.8571428571428571,LMH4MBXVwL
9,MS,easy,3,NA,1,LMH4MBXVwL
9,MS,medium,5,NA,1,LMH4MBXVwL
9,MS,hard,4,NA,0.5714285714285714,LMH4MBXVwL
10,MS,easy,3,NA,1,LMH4MBXVwL
10,MS,medium,5,NA,1,LMH4MBXVwL
10,MS,hard,7,NA,1,LMH4MBXVwL
11,MS,easy,3,NA,1,LMH4MBXVwL
11,MS,medium,5,NA,1,LMH4MBXVwL
11,MS,hard,7,NA,1,LMH4MBXVwL
12,MS,easy,3,NA,1,LMH4MBXVwL
12,MS,medium,4,NA,0.8,LMH4MBXVwL
12,MS,hard,6,NA,0.8571428571428571,LMH4MBXVwL
13,MS,easy,3,NA,1,LMH4MBXVwL
13,MS,medium,5,NA,1,LMH4MBXVwL
13,MS,hard,6,NA,0.8571428571428571,LMH4MBXVwL
14,MS,easy,3,NA,1,LMH4MBXVwL
14,MS,medium,4,NA,0.8,LMH4MBXVwL
14,MS,hard,7,NA,1,LMH4MBXVwL
15,MS,easy,3,NA,1,LMH4MBXVwL
15,MS,medium,5,NA,1,LMH4MBXVwL
15,MS,hard,7,NA,1,LMH4MBXVwL
16,MS,easy,3,NA,1,LMH4MBXVwL
16,MS,medium,5,NA,1,LMH4MBXVwL
16,MS,hard,7,NA,1,LMH4MBXVwL
1,MS,easy,3,14.4582,1,y4Sh5zF3gm
1,MS,medium,5,29.9156,1,y4Sh5zF3gm
1,MS,hard,0,18.5629,0,y4Sh5zF3gm
2,MS,easy,3,13.6035,1,y4Sh5zF3gm
2,MS,medium,3,17.957,0.6,y4Sh5zF3gm
2,MS,hard,5,21.895,0.7142857142857143,y4Sh5zF3gm
3,MS,easy,3,20.7704,1,y4Sh5zF3gm
3,MS,medium,4,18.9372,0.8,y4Sh5zF3gm
3,MS,hard,4,17.7907,0.5714285714285714,y4Sh5zF3gm
4,MS,easy,3,14.5829,1,y4Sh5zF3gm
4,MS,medium,5,20.6869,1,y4Sh5zF3gm
4,MS,hard,5,21.7073,0.7142857142857143,y4Sh5zF3gm
5,MS,easy,3,13.3539,1,y4Sh5zF3gm
5,MS,medium,4,24.7283,0.8,y4Sh5zF3gm
5,MS,hard,3,13.1451,0.42857142857142855,y4Sh5zF3gm
6,MS,easy,3,16.9161,1,y4Sh5zF3gm
6,MS,medium,5,19.0825,1,y4Sh5zF3gm
6,MS,hard,2,13.9362,0.2857142857142857,y4Sh5zF3gm
7,MS,easy,3,13.9573,1,y4Sh5zF3gm
7,MS,medium,4,23.4157,0.8,y4Sh5zF3gm
7,MS,hard,3,18.4159,0.42857142857142855,y4Sh5zF3gm
8,MS,easy,3,12.3738,1,y4Sh5zF3gm
8,MS,medium,5,23.9362,1,y4Sh5zF3gm
8,MS,hard,3,24.4158,0.42857142857142855,y4Sh5zF3gm
9,MS,easy,3,14.3953,1,y4Sh5zF3gm
9,MS,medium,3,20.8118,0.6,y4Sh5zF3gm
9,MS,hard,1,15.853,0.14285714285714285,y4Sh5zF3gm
10,MS,easy,3,12.9366,1,y4Sh5zF3gm
10,MS,medium,4,20.4574,0.8,y4Sh5zF3gm
10,MS,hard,3,14.541,0.42857142857142855,y4Sh5zF3gm
11,MS,easy,3,13.666,1,y4Sh5zF3gm
11,MS,medium,4,22.041,0.8,y4Sh5zF3gm
11,MS,hard,3,17.6243,0.42857142857142855,y4Sh5zF3gm
12,MS,easy,3,11.6453,1,y4Sh5zF3gm
12,MS,medium,5,17.7701,1,y4Sh5zF3gm
12,MS,hard,4,18.1027,0.5714285714285714,y4Sh5zF3gm
13,MS,easy,3,14.687,1,y4Sh5zF3gm
13,MS,medium,4,22.8329,0.8,y4Sh5zF3gm
13,MS,hard,4,16.6657,0.5714285714285714,y4Sh5zF3gm
14,MS,easy,3,12.1872,1,y4Sh5zF3gm
14,MS,medium,5,20.4986,1,y4Sh5zF3gm
14,MS,hard,5,30.8739,0.7142857142857143,y4Sh5zF3gm
15,MS,easy,3,11.5825,1,y4Sh5zF3gm
15,MS,medium,5,20.9363,1,y4Sh5zF3gm
15,MS,hard,5,20.9365,0.7142857142857143,y4Sh5zF3gm
16,MS,easy,3,13.978,1,y4Sh5zF3gm
16,MS,medium,3,18.4157,0.6,y4Sh5zF3gm
16,MS,hard,5,27.1451,0.7142857142857143,y4Sh5zF3gm
1,MS,easy,3,15.1901,1,DoJgv77gQp
1,MS,medium,4,18.9345,0.8,DoJgv77gQp
1,MS,hard,4,19.9507,0.5714285714285714,DoJgv77gQp
2,MS,easy,3,12.4644,1,DoJgv77gQp
2,MS,medium,4,25.8587,0.8,DoJgv77gQp
2,MS,hard,2,10.1111,0.2857142857142857,DoJgv77gQp
3,MS,easy,3,10.8526,1,DoJgv77gQp
3,MS,medium,3,15.8979,0.6,DoJgv77gQp
3,MS,hard,3,10.7146,0.42857142857142855,DoJgv77gQp
4,MS,easy,3,11.2477,1,DoJgv77gQp
4,MS,medium,3,14.3478,0.6,DoJgv77gQp
4,MS,hard,4,14.9842,0.5714285714285714,DoJgv77gQp
5,MS,easy,3,13.1315,1,DoJgv77gQp
5,MS,medium,5,18.4145,1,DoJgv77gQp
5,MS,hard,1,16.7474,0.14285714285714285,DoJgv77gQp
6,MS,easy,3,10.1025,1,DoJgv77gQp
6,MS,medium,5,15.7936,1,DoJgv77gQp
6,MS,hard,2,8.8316,0.2857142857142857,DoJgv77gQp
7,MS,easy,3,10.4317,1,DoJgv77gQp
7,MS,medium,4,19.114,0.8,DoJgv77gQp
7,MS,hard,2,13.4441,0.2857142857142857,DoJgv77gQp
8,MS,easy,3,11.4669,1,DoJgv77gQp
8,MS,medium,5,15.7437,1,DoJgv77gQp
8,MS,hard,3,13.131,0.42857142857142855,DoJgv77gQp
9,MS,easy,3,9.6499,1,DoJgv77gQp
9,MS,medium,4,20.5663,0.8,DoJgv77gQp
9,MS,hard,2,9.8153,0.2857142857142857,DoJgv77gQp
10,MS,easy,3,11.8148,1,DoJgv77gQp
10,MS,medium,4,16.2177,0.8,DoJgv77gQp
10,MS,hard,2,8.1822,0.2857142857142857,DoJgv77gQp
11,MS,easy,3,11.7147,1,DoJgv77gQp
11,MS,medium,5,15.5264,1,DoJgv77gQp
11,MS,hard,3,9.2189,0.42857142857142855,DoJgv77gQp
12,MS,easy,3,11.2985,1,DoJgv77gQp
12,MS,medium,3,14.6972,0.6,DoJgv77gQp
12,MS,hard,4,15.3851,0.5714285714285714,DoJgv77gQp
13,MS,easy,3,14.7481,1,DoJgv77gQp
13,MS,medium,4,19.0164,0.8,DoJgv77gQp
13,MS,hard,1,12.2345,0.14285714285714285,DoJgv77gQp
14,MS,easy,3,9.936,1,DoJgv77gQp
14,MS,medium,4,19.7348,0.8,DoJgv77gQp
14,MS,hard,4,14.4455,0.5714285714285714,DoJgv77gQp
15,MS,easy,3,8.4823,1,DoJgv77gQp
15,MS,medium,4,16.0189,0.8,DoJgv77gQp
15,MS,hard,4,18.478,0.5714285714285714,DoJgv77gQp
16,MS,easy,3,12.2812,1,DoJgv77gQp
16,MS,medium,4,12.1482,0.8,DoJgv77gQp
16,MS,hard,5,17.86,0.7142857142857143,DoJgv77gQp
1,MS,easy,3,12.7508,1,5oQkfRc0Dh
1,MS,medium,4,17.6817,0.8,5oQkfRc0Dh
1,MS,hard,5,25.2735,0.7142857142857143,5oQkfRc0Dh
2,MS,easy,3,14.0056,1,5oQkfRc0Dh
2,MS,medium,5,23.0732,1,5oQkfRc0Dh
2,MS,hard,3,23.0902,0.42857142857142855,5oQkfRc0Dh
3,MS,easy,3,18.0212,1,5oQkfRc0Dh
3,MS,medium,5,19.5613,1,5oQkfRc0Dh
3,MS,hard,6,24.4401,0.8571428571428571,5oQkfRc0Dh
4,MS,easy,3,16.148,1,5oQkfRc0Dh
4,MS,medium,3,20.1258,0.6,5oQkfRc0Dh
4,MS,hard,4,16.4478,0.5714285714285714,5oQkfRc0Dh
5,MS,easy,3,13.3135,1,5oQkfRc0Dh
5,MS,medium,2,20.9863,0.4,5oQkfRc0Dh
5,MS,hard,4,22.7387,0.5714285714285714,5oQkfRc0Dh
6,MS,easy,3,12.5282,1,5oQkfRc0Dh
6,MS,medium,4,15.2208,0.8,5oQkfRc0Dh
6,MS,hard,2,19.1018,0.2857142857142857,5oQkfRc0Dh
7,MS,easy,3,21.8209,1,5oQkfRc0Dh
7,MS,medium,5,19.4357,1,5oQkfRc0Dh
7,MS,hard,4,14.1137,0.5714285714285714,5oQkfRc0Dh
8,MS,easy,3,13.7458,1,5oQkfRc0Dh
8,MS,medium,5,14.6612,1,5oQkfRc0Dh
8,MS,hard,4,14.2127,0.5714285714285714,5oQkfRc0Dh
9,MS,easy,3,11.5106,1,5oQkfRc0Dh
9,MS,medium,4,23.1951,0.8,5oQkfRc0Dh
9,MS,hard,4,21.1606,0.5714285714285714,5oQkfRc0Dh
10,MS,easy,3,15.1812,1,5oQkfRc0Dh
10,MS,medium,3,16.3813,0.6,5oQkfRc0Dh
10,MS,hard,5,23.3388,0.7142857142857143,5oQkfRc0Dh
11,MS,easy,3,14.9467,1,5oQkfRc0Dh
11,MS,medium,5,18.6848,1,5oQkfRc0Dh
11,MS,hard,3,14.421,0.42857142857142855,5oQkfRc0Dh
12,MS,easy,3,12.6617,1,5oQkfRc0Dh
12,MS,medium,3,19.1007,0.6,5oQkfRc0Dh
12,MS,hard,3,14.2879,0.42857142857142855,5oQkfRc0Dh
13,MS,easy,2,10.7765,0.6666666666666666,5oQkfRc0Dh
13,MS,medium,3,11.461,0.6,5oQkfRc0Dh
13,MS,hard,3,18.8851,0.42857142857142855,5oQkfRc0Dh
14,MS,easy,3,13.4459,1,5oQkfRc0Dh
14,MS,medium,5,16.9159,1,5oQkfRc0Dh
14,MS,hard,7,28.6021,1,5oQkfRc0Dh
15,MS,easy,3,14.3298,1,5oQkfRc0Dh
15,MS,medium,4,14.4634,0.8,5oQkfRc0Dh
15,MS,hard,5,20.7273,0.7142857142857143,5oQkfRc0Dh
16,MS,easy,3,12.829,1,5oQkfRc0Dh
16,MS,medium,4,16.2155,0.8,5oQkfRc0Dh
16,MS,hard,5,20.7529,0.7142857142857143,5oQkfRc0Dh
1,MS,easy,3,12.8967,1,yRSAaGEgHo
1,MS,medium,4,17.5989,0.8,yRSAaGEgHo
1,MS,hard,6,22.1026,0.8571428571428571,yRSAaGEgHo
2,MS,easy,3,24.3964,1,yRSAaGEgHo
2,MS,medium,5,18.3807,1,yRSAaGEgHo
2,MS,hard,5,16.699,0.7142857142857143,yRSAaGEgHo
3,MS,easy,3,14.4312,1,yRSAaGEgHo
3,MS,medium,5,14.75,1,yRSAaGEgHo
3,MS,hard,5,17.4518,0.7142857142857143,yRSAaGEgHo
4,MS,easy,3,12.4646,1,yRSAaGEgHo
4,MS,medium,5,14.7487,1,yRSAaGEgHo
4,MS,hard,5,18.5818,0.7142857142857143,yRSAaGEgHo
5,MS,easy,3,12.8303,1,yRSAaGEgHo
5,MS,medium,4,20.9981,0.8,yRSAaGEgHo
5,MS,hard,4,15.9984,0.5714285714285714,yRSAaGEgHo
6,MS,easy,3,9.3487,1,yRSAaGEgHo
6,MS,medium,4,17.1147,0.8,yRSAaGEgHo
6,MS,hard,5,20.4986,0.7142857142857143,yRSAaGEgHo
7,MS,easy,3,9.8648,1,yRSAaGEgHo
7,MS,medium,5,14.8812,1,yRSAaGEgHo
7,MS,hard,7,25.7225,1,yRSAaGEgHo
8,MS,easy,3,10.7327,1,yRSAaGEgHo
8,MS,medium,5,20.3155,1,yRSAaGEgHo
8,MS,hard,4,15.2302,0.5714285714285714,yRSAaGEgHo
9,MS,easy,3,11.1647,1,yRSAaGEgHo
9,MS,medium,5,20.9974,1,yRSAaGEgHo
9,MS,hard,5,20.5,0.7142857142857143,yRSAaGEgHo
10,MS,easy,3,10.4633,1,yRSAaGEgHo
10,MS,medium,4,18.7596,0.8,yRSAaGEgHo
10,MS,hard,4,22.5151,0.5714285714285714,yRSAaGEgHo
11,MS,easy,3,9.9647,1,yRSAaGEgHo
11,MS,medium,5,19.2137,1,yRSAaGEgHo
11,MS,hard,3,17.6339,0.42857142857142855,yRSAaGEgHo
12,MS,easy,3,8.7982,1,yRSAaGEgHo
12,MS,medium,4,17.1476,0.8,yRSAaGEgHo
12,MS,hard,5,29.9965,0.7142857142857143,yRSAaGEgHo
13,MS,easy,3,11.1311,1,yRSAaGEgHo
13,MS,medium,4,16.2305,0.8,yRSAaGEgHo
13,MS,hard,5,22.0315,0.7142857142857143,yRSAaGEgHo
14,MS,easy,3,14.9977,1,yRSAaGEgHo
14,MS,medium,5,17.9521,1,yRSAaGEgHo
14,MS,hard,6,22.3851,0.8571428571428571,yRSAaGEgHo
15,MS,easy,3,11.6308,1,yRSAaGEgHo
15,MS,medium,3,14.898,0.6,yRSAaGEgHo
15,MS,hard,6,21.5975,0.8571428571428571,yRSAaGEgHo
16,MS,easy,3,9.9314,1,yRSAaGEgHo
16,MS,medium,3,14.7159,0.6,yRSAaGEgHo
16,MS,hard,5,18.7138,0.7142857142857143,yRSAaGEgHo
1,MS,easy,3,7.732,1,WLE3Etok97
1,MS,medium,5,12.016,1,WLE3Etok97
1,MS,hard,6,20.865,0.8571428571428571,WLE3Etok97
2,MS,easy,3,7.483,1,WLE3Etok97
2,MS,medium,4,11.766,0.8,WLE3Etok97
2,MS,hard,7,20.831,1,WLE3Etok97
3,MS,easy,3,9.231,1,WLE3Etok97
3,MS,medium,5,12.132,1,WLE3Etok97
3,MS,hard,5,18.549,0.7142857142857143,WLE3Etok97
4,MS,easy,3,9.482,1,WLE3Etok97
4,MS,medium,5,11.581,1,WLE3Etok97
4,MS,hard,4,12.766,0.5714285714285714,WLE3Etok97
5,MS,easy,3,7.749,1,WLE3Etok97
5,MS,medium,5,11.083,1,WLE3Etok97
5,MS,hard,7,18.083,1,WLE3Etok97
6,MS,easy,3,8.266,1,WLE3Etok97
6,MS,medium,5,10.884,1,WLE3Etok97
6,MS,hard,5,11.399,0.7142857142857143,WLE3Etok97
7,MS,easy,3,7.8,1,WLE3Etok97
7,MS,medium,5,14.198,1,WLE3Etok97
7,MS,hard,6,16.115,0.8571428571428571,WLE3Etok97
8,MS,easy,3,7.215,1,WLE3Etok97
8,MS,medium,5,12.35,1,WLE3Etok97
8,MS,hard,6,13.983,0.8571428571428571,WLE3Etok97
9,MS,easy,3,6.381,1,WLE3Etok97
9,MS,medium,5,10.415,1,WLE3Etok97
9,MS,hard,5,14.584,0.7142857142857143,WLE3Etok97
10,MS,easy,3,7.065,1,WLE3Etok97
10,MS,medium,5,9.899,1,WLE3Etok97
10,MS,hard,4,12.848,0.5714285714285714,WLE3Etok97
11,MS,easy,3,7.532,1,WLE3Etok97
11,MS,medium,5,10.682,1,WLE3Etok97
11,MS,hard,4,13.116,0.5714285714285714,WLE3Etok97
12,MS,easy,3,7.816,1,WLE3Etok97
12,MS,medium,5,9.601,1,WLE3Etok97
12,MS,hard,6,15.365,0.8571428571428571,WLE3Etok97
13,MS,easy,3,5.699,1,WLE3Etok97
13,MS,medium,5,9.531,1,WLE3Etok97
13,MS,hard,5,12.833,0.7142857142857143,WLE3Etok97
14,MS,easy,3,7.798,1,WLE3Etok97
14,MS,medium,5,12.331,1,WLE3Etok97
14,MS,hard,4,8.799,0.5714285714285714,WLE3Etok97
15,MS,easy,3,6.199,1,WLE3Etok97
15,MS,medium,5,8.432,1,WLE3Etok97
15,MS,hard,5,10.45,0.7142857142857143,WLE3Etok97
16,MS,easy,3,5.798,1,WLE3Etok97
16,MS,medium,5,9.715,1,WLE3Etok97
16,MS,hard,4,9.949,0.5714285714285714,WLE3Etok97
1,MS,easy,3,11.4324,1,HajArhl9Mf
1,MS,medium,5,15.6834,1,HajArhl9Mf
1,MS,hard,2,26.8666,0.2857142857142857,HajArhl9Mf
2,MS,easy,3,13.3824,1,HajArhl9Mf
2,MS,medium,5,14.8989,1,HajArhl9Mf
2,MS,hard,7,17.8837,1,HajArhl9Mf
3,MS,easy,3,13.0158,1,HajArhl9Mf
3,MS,medium,5,15.5481,1,HajArhl9Mf
3,MS,hard,7,17.5673,1,HajArhl9Mf
4,MS,easy,3,8.466,1,HajArhl9Mf
4,MS,medium,5,14.9324,1,HajArhl9Mf
4,MS,hard,7,18.4154,1,HajArhl9Mf
5,MS,easy,3,10.3146,1,HajArhl9Mf
5,MS,medium,5,16.8982,1,HajArhl9Mf
5,MS,hard,7,19.6159,1,HajArhl9Mf
6,MS,easy,3,11.4485,1,HajArhl9Mf
6,MS,medium,5,13.464,1,HajArhl9Mf
6,MS,hard,6,20.1167,0.8571428571428571,HajArhl9Mf
7,MS,easy,0,12.7167,0,HajArhl9Mf
7,MS,medium,4,15.9315,0.8,HajArhl9Mf
7,MS,hard,7,18.4823,1,HajArhl9Mf
8,MS,easy,3,7.2173,1,HajArhl9Mf
8,MS,medium,5,16.6645,1,HajArhl9Mf
8,MS,hard,7,17.7502,1,HajArhl9Mf
9,MS,easy,3,8.0981,1,HajArhl9Mf
9,MS,medium,5,13.1983,1,HajArhl9Mf
9,MS,hard,7,19.3327,1,HajArhl9Mf
10,MS,easy,3,7.6826,1,HajArhl9Mf
10,MS,medium,5,16.2805,1,HajArhl9Mf
10,MS,hard,7,16.3835,1,HajArhl9Mf
11,MS,easy,3,13.2337,1,HajArhl9Mf
11,MS,medium,5,15.3322,1,HajArhl9Mf
11,MS,hard,5,30.2839,0.7142857142857143,HajArhl9Mf
12,MS,easy,3,8.4834,1,HajArhl9Mf
12,MS,medium,5,15.999,1,HajArhl9Mf
12,MS,hard,7,21.1163,1,HajArhl9Mf
13,MS,easy,3,8.7989,1,HajArhl9Mf
13,MS,medium,5,19.2157,1,HajArhl9Mf
13,MS,hard,7,21.5501,1,HajArhl9Mf
14,MS,easy,3,8.7005,1,HajArhl9Mf
14,MS,medium,5,14.3998,1,HajArhl9Mf
14,MS,hard,7,18.7984,1,HajArhl9Mf
15,MS,easy,3,8.7333,1,HajArhl9Mf
15,MS,medium,5,18.9656,1,HajArhl9Mf
15,MS,hard,7,21.3651,1,HajArhl9Mf
16,MS,easy,3,7.2483,1,HajArhl9Mf
16,MS,medium,5,18.3161,1,HajArhl9Mf
16,MS,hard,4,36.8507,0.5714285714285714,HajArhl9Mf
1,MS,easy,3,11.932,1,xYKzEb6U69
1,MS,medium,5,15.933,1,xYKzEb6U69
1,MS,hard,3,20.134,0.42857142857142855,xYKzEb6U69
2,MS,easy,3,10.849,1,xYKzEb6U69
2,MS,medium,5,15.933,1,xYKzEb6U69
2,MS,hard,5,19.183,0.7142857142857143,xYKzEb6U69
3,MS,easy,3,12.117,1,xYKzEb6U69
3,MS,medium,5,14.783,1,xYKzEb6U69
3,MS,hard,6,27.335,0.8571428571428571,xYKzEb6U69
4,MS,easy,3,12.3,1,xYKzEb6U69
4,MS,medium,5,15.267,1,xYKzEb6U69
4,MS,hard,6,21.917,0.8571428571428571,xYKzEb6U69
5,MS,easy,3,10.1,1,xYKzEb6U69
5,MS,medium,5,19.867,1,xYKzEb6U69
5,MS,hard,6,32.168,0.8571428571428571,xYKzEb6U69
6,MS,easy,3,10.618,1,xYKzEb6U69
6,MS,medium,5,19.435,1,xYKzEb6U69
6,MS,hard,4,17.7,0.5714285714285714,xYKzEb6U69
7,MS,easy,3,15.266,1,xYKzEb6U69
7,MS,medium,5,15.134,1,xYKzEb6U69
7,MS,hard,5,29.118,0.7142857142857143,xYKzEb6U69
8,MS,easy,3,8.416,1,xYKzEb6U69
8,MS,medium,5,16.717,1,xYKzEb6U69
8,MS,hard,7,23.818,1,xYKzEb6U69
9,MS,easy,3,9.199,1,xYKzEb6U69
9,MS,medium,5,15.817,1,xYKzEb6U69
9,MS,hard,7,22.001,1,xYKzEb6U69
10,MS,easy,3,7.65,1,xYKzEb6U69
10,MS,medium,5,14.067,1,xYKzEb6U69
10,MS,hard,5,27.566,0.7142857142857143,xYKzEb6U69
11,MS,easy,3,7.933,1,xYKzEb6U69
11,MS,medium,5,15.651,1,xYKzEb6U69
11,MS,hard,5,23.234,0.7142857142857143,xYKzEb6U69
12,MS,easy,3,8.366,1,xYKzEb6U69
12,MS,medium,5,14.016,1,xYKzEb6U69
12,MS,hard,3,28.585,0.42857142857142855,xYKzEb6U69
13,MS,easy,3,8.315,1,xYKzEb6U69
13,MS,medium,5,18.032,1,xYKzEb6U69
13,MS,hard,4,16.885,0.5714285714285714,xYKzEb6U69
14,MS,easy,3,9.883,1,xYKzEb6U69
14,MS,medium,5,16.035,1,xYKzEb6U69
14,MS,hard,5,19.968,0.7142857142857143,xYKzEb6U69
15,MS,easy,3,8.466,1,xYKzEb6U69
15,MS,medium,4,16.067,0.8,xYKzEb6U69
15,MS,hard,4,27.318,0.5714285714285714,xYKzEb6U69
16,MS,easy,3,9.682,1,xYKzEb6U69
16,MS,medium,5,17.867,1,xYKzEb6U69
16,MS,hard,5,25.218,0.7142857142857143,xYKzEb6U69
1,MS,easy,3,8.967,1,XdaJtcIO9r
1,MS,medium,5,18.1188,1,XdaJtcIO9r
1,MS,hard,6,24.4913,0.8571428571428571,XdaJtcIO9r
2,MS,easy,3,8.3214,1,XdaJtcIO9r
2,MS,medium,4,24.8272,0.8,XdaJtcIO9r
2,MS,hard,5,80.6984,0.7142857142857143,XdaJtcIO9r
3,MS,easy,3,7.7164,1,XdaJtcIO9r
3,MS,medium,3,24.9716,0.6,XdaJtcIO9r
3,MS,hard,4,20.1413,0.5714285714285714,XdaJtcIO9r
4,MS,easy,2,7.6039,0.6666666666666666,XdaJtcIO9r
4,MS,medium,5,18.8231,1,XdaJtcIO9r
4,MS,hard,3,14.234,0.42857142857142855,XdaJtcIO9r
5,MS,easy,3,33.925,1,XdaJtcIO9r
5,MS,medium,2,13.066,0.4,XdaJtcIO9r
5,MS,hard,4,19.105,0.5714285714285714,XdaJtcIO9r
6,MS,easy,3,9.0412,1,XdaJtcIO9r
6,MS,medium,4,14.4952,0.8,XdaJtcIO9r
6,MS,hard,4,22.6049,0.5714285714285714,XdaJtcIO9r
7,MS,easy,3,8.5011,1,XdaJtcIO9r
7,MS,medium,4,14.6525,0.8,XdaJtcIO9r
7,MS,hard,5,20.0212,0.7142857142857143,XdaJtcIO9r
8,MS,easy,3,9.7004,1,XdaJtcIO9r
8,MS,medium,4,20.7946,0.8,XdaJtcIO9r
8,MS,hard,4,12.8296,0.5714285714285714,XdaJtcIO9r
9,MS,easy,3,7.7388,1,XdaJtcIO9r
9,MS,medium,4,13.9186,0.8,XdaJtcIO9r
9,MS,hard,5,18.7991,0.7142857142857143,XdaJtcIO9r
10,MS,easy,3,7.9817,1,XdaJtcIO9r
10,MS,medium,4,12.6088,0.8,XdaJtcIO9r
10,MS,hard,5,31.6559,0.7142857142857143,XdaJtcIO9r
11,MS,easy,3,8.2412,1,XdaJtcIO9r
11,MS,medium,5,17.4988,1,XdaJtcIO9r
11,MS,hard,4,15.9349,0.5714285714285714,XdaJtcIO9r
12,MS,easy,3,11.0678,1,XdaJtcIO9r
12,MS,medium,4,11.2754,0.8,XdaJtcIO9r
12,MS,hard,4,52.7991,0.5714285714285714,XdaJtcIO9r
13,MS,easy,2,8.1254,0.6666666666666666,XdaJtcIO9r
13,MS,medium,5,15.3739,1,XdaJtcIO9r
13,MS,hard,4,16.0162,0.5714285714285714,XdaJtcIO9r
14,MS,easy,3,9.0362,1,XdaJtcIO9r
14,MS,medium,3,14.1081,0.6,XdaJtcIO9r
14,MS,hard,5,24.6527,0.7142857142857143,XdaJtcIO9r
15,MS,easy,3,7.3249,1,XdaJtcIO9r
15,MS,medium,4,10.8847,0.8,XdaJtcIO9r
15,MS,hard,3,17.273,0.42857142857142855,XdaJtcIO9r
16,MS,easy,2,11.4447,0.6666666666666666,XdaJtcIO9r
16,MS,medium,5,18.4918,1,XdaJtcIO9r
16,MS,hard,4,197.0025,0.5714285714285714,XdaJtcIO9r
1,MS,easy,3,10.3821,1,JpDUHBwJT1
1,MS,medium,5,15.715,1,JpDUHBwJT1
1,MS,hard,6,20.7492,0.8571428571428571,JpDUHBwJT1
2,MS,easy,3,8.2504,1,JpDUHBwJT1
2,MS,medium,5,14.2165,1,JpDUHBwJT1
2,MS,hard,4,34.9975,0.5714285714285714,JpDUHBwJT1
3,MS,easy,3,9.5999,1,JpDUHBwJT1
3,MS,medium,5,19.0499,1,JpDUHBwJT1
3,MS,hard,6,30.2476,0.8571428571428571,JpDUHBwJT1
4,MS,easy,3,10.2319,1,JpDUHBwJT1
4,MS,medium,5,17.1136,1,JpDUHBwJT1
4,MS,hard,5,17.1978,0.7142857142857143,JpDUHBwJT1
5,MS,easy,3,8.4333,1,JpDUHBwJT1
5,MS,medium,5,18.6648,1,JpDUHBwJT1
5,MS,hard,4,12.9311,0.5714285714285714,JpDUHBwJT1
6,MS,easy,3,7.5823,1,JpDUHBwJT1
6,MS,medium,5,20.1657,1,JpDUHBwJT1
6,MS,hard,7,21.4502,1,JpDUHBwJT1
7,MS,easy,3,7.0993,1,JpDUHBwJT1
7,MS,medium,5,12.9493,1,JpDUHBwJT1
7,MS,hard,5,23.7659,0.7142857142857143,JpDUHBwJT1
8,MS,easy,3,7.3839,1,JpDUHBwJT1
8,MS,medium,5,19.1989,1,JpDUHBwJT1
8,MS,hard,4,21.7823,0.5714285714285714,JpDUHBwJT1
9,MS,easy,3,8.2161,1,JpDUHBwJT1
9,MS,medium,5,17.5491,1,JpDUHBwJT1
9,MS,hard,5,15.5314,0.7142857142857143,JpDUHBwJT1
10,MS,easy,3,6.9991,1,JpDUHBwJT1
10,MS,medium,4,14.8152,0.8,JpDUHBwJT1
10,MS,hard,6,17.7491,0.8571428571428571,JpDUHBwJT1
11,MS,easy,3,9.3503,1,JpDUHBwJT1
11,MS,medium,5,18.6154,1,JpDUHBwJT1
11,MS,hard,4,17.2342,0.5714285714285714,JpDUHBwJT1
12,MS,easy,3,8.0489,1,JpDUHBwJT1
12,MS,medium,5,13.8987,1,JpDUHBwJT1
12,MS,hard,7,22.4657,1,JpDUHBwJT1
13,MS,easy,3,7.6321,1,JpDUHBwJT1
13,MS,medium,5,12.6645,1,JpDUHBwJT1
13,MS,hard,7,19.4314,1,JpDUHBwJT1
14,MS,easy,3,10.7655,1,JpDUHBwJT1
14,MS,medium,5,16.2987,1,JpDUHBwJT1
14,MS,hard,5,21.7328,0.7142857142857143,JpDUHBwJT1
15,MS,easy,3,9.832,1,JpDUHBwJT1
15,MS,medium,5,14.8819,1,JpDUHBwJT1
15,MS,hard,5,16.3164,0.7142857142857143,JpDUHBwJT1
16,MS,easy,3,7.699,1,JpDUHBwJT1
16,MS,medium,5,12.6658,1,JpDUHBwJT1
16,MS,hard,5,16.5843,0.7142857142857143,JpDUHBwJT1
1,MS,easy,3,6.6655,1,z8uZORh5Lg
1,MS,medium,5,10.798,1,z8uZORh5Lg
1,MS,hard,4,15.5825,0.5714285714285714,z8uZORh5Lg
2,MS,easy,3,7.5664,1,z8uZORh5Lg
2,MS,medium,5,11.1328,1,z8uZORh5Lg
2,MS,hard,2,7.4669,0.2857142857142857,z8uZORh5Lg
3,MS,easy,3,7.8995,1,z8uZORh5Lg
3,MS,medium,4,10.5989,0.8,z8uZORh5Lg
3,MS,hard,6,13.9825,0.8571428571428571,z8uZORh5Lg
4,MS,easy,2,12.2155,0.6666666666666666,z8uZORh5Lg
4,MS,medium,4,9.2168,0.8,z8uZORh5Lg
4,MS,hard,4,13.5331,0.5714285714285714,z8uZORh5Lg
5,MS,easy,3,5.6155,1,z8uZORh5Lg
5,MS,medium,4,14.3326,0.8,z8uZORh5Lg
5,MS,hard,3,8.7489,0.42857142857142855,z8uZORh5Lg
6,MS,easy,3,8.2834,1,z8uZORh5Lg
6,MS,medium,4,10.9323,0.8,z8uZORh5Lg
6,MS,hard,5,14.8651,0.7142857142857143,z8uZORh5Lg
7,MS,easy,3,8.0664,1,z8uZORh5Lg
7,MS,medium,5,8.9496,1,z8uZORh5Lg
7,MS,hard,3,11.1326,0.42857142857142855,z8uZORh5Lg
8,MS,easy,3,8.3504,1,z8uZORh5Lg
8,MS,medium,3,14.2998,0.6,z8uZORh5Lg
8,MS,hard,5,11.1147,0.7142857142857143,z8uZORh5Lg
9,MS,easy,3,7.0324,1,z8uZORh5Lg
9,MS,medium,3,6.866,0.6,z8uZORh5Lg
9,MS,hard,3,10.2665,0.42857142857142855,z8uZORh5Lg
10,MS,easy,3,11.4992,1,z8uZORh5Lg
10,MS,medium,2,3.8322,0.4,z8uZORh5Lg
10,MS,hard,4,9.8489,0.5714285714285714,z8uZORh5Lg
11,MS,easy,3,7.5494,1,z8uZORh5Lg
11,MS,medium,3,8.1827,0.6,z8uZORh5Lg
11,MS,hard,5,11.7834,0.7142857142857143,z8uZORh5Lg
12,MS,easy,3,8.7993,1,z8uZORh5Lg
12,MS,medium,5,15.3156,1,z8uZORh5Lg
12,MS,hard,7,16.5559,1,z8uZORh5Lg
13,MS,easy,3,6.9323,1,z8uZORh5Lg
13,MS,medium,5,9.6328,1,z8uZORh5Lg
13,MS,hard,5,15.5313,0.7142857142857143,z8uZORh5Lg
14,MS,easy,3,8.7989,1,z8uZORh5Lg
14,MS,medium,5,8.8998,1,z8uZORh5Lg
14,MS,hard,5,11.1341,0.7142857142857143,z8uZORh5Lg
15,MS,easy,3,8.2995,1,z8uZORh5Lg
15,MS,medium,5,9.8978,1,z8uZORh5Lg
15,MS,hard,2,5.0827,0.2857142857142857,z8uZORh5Lg
16,MS,easy,3,5.9823,1,z8uZORh5Lg
16,MS,medium,5,8.5163,1,z8uZORh5Lg
16,MS,hard,5,11.0165,0.7142857142857143,z8uZORh5Lg
1,MS,easy,3,10.1402,1,yIjm6EG67z
1,MS,medium,5,17.0361,1,yIjm6EG67z
1,MS,hard,6,24.9056,0.8571428571428571,yIjm6EG67z
2,MS,easy,3,9.4584,1,yIjm6EG67z
2,MS,medium,5,16.4019,1,yIjm6EG67z
2,MS,hard,5,25.6113,0.7142857142857143,yIjm6EG67z
3,MS,easy,3,10.1747,1,yIjm6EG67z
3,MS,medium,5,16.8356,1,yIjm6EG67z
3,MS,hard,5,33.2887,0.7142857142857143,yIjm6EG67z
4,MS,easy,3,9.1587,1,yIjm6EG67z
4,MS,medium,5,15.6857,1,yIjm6EG67z
4,MS,hard,5,27.2603,0.7142857142857143,yIjm6EG67z
5,MS,easy,3,11.8567,1,yIjm6EG67z
5,MS,medium,5,20.2328,1,yIjm6EG67z
5,MS,hard,6,23.1306,0.8571428571428571,yIjm6EG67z
6,MS,easy,3,10.1911,1,yIjm6EG67z
6,MS,medium,5,25.8448,1,yIjm6EG67z
6,MS,hard,4,28.5093,0.5714285714285714,yIjm6EG67z
7,MS,easy,3,10.341,1,yIjm6EG67z
7,MS,medium,5,16.2191,1,yIjm6EG67z
7,MS,hard,5,17.7848,0.7142857142857143,yIjm6EG67z
8,MS,easy,3,12.3232,1,yIjm6EG67z
8,MS,medium,5,16.4025,1,yIjm6EG67z
8,MS,hard,5,18.4677,0.7142857142857143,yIjm6EG67z
9,MS,easy,3,10.9071,1,yIjm6EG67z
9,MS,medium,5,16.1194,1,yIjm6EG67z
9,MS,hard,4,22.8141,0.5714285714285714,yIjm6EG67z
10,MS,easy,3,9.7081,1,yIjm6EG67z
10,MS,medium,5,19.25,1,yIjm6EG67z
10,MS,hard,4,18.4343,0.5714285714285714,yIjm6EG67z
11,MS,easy,3,11.9564,1,yIjm6EG67z
11,MS,medium,5,16.2524,1,yIjm6EG67z
11,MS,hard,6,27.0772,0.8571428571428571,yIjm6EG67z
12,MS,easy,3,9.059,1,yIjm6EG67z
12,MS,medium,5,15.8532,1,yIjm6EG67z
12,MS,hard,5,22.1145,0.7142857142857143,yIjm6EG67z
13,MS,easy,3,11.3399,1,yIjm6EG67z
13,MS,medium,5,25.9451,1,yIjm6EG67z
13,MS,hard,4,17.4354,0.5714285714285714,yIjm6EG67z
14,MS,easy,3,11.5561,1,yIjm6EG67z
14,MS,medium,5,16.0189,1,yIjm6EG67z
14,MS,hard,6,23.9299,0.8571428571428571,yIjm6EG67z
15,MS,easy,3,9.0758,1,yIjm6EG67z
15,MS,medium,5,18.4344,1,yIjm6EG67z
15,MS,hard,5,16.9521,0.7142857142857143,yIjm6EG67z
16,MS,easy,3,9.4253,1,yIjm6EG67z
16,MS,medium,5,29.5417,1,yIjm6EG67z
16,MS,hard,7,36.0859,1,yIjm6EG67z
1,MS,easy,3,10.9352,1,alNlXuBH5D
1,MS,medium,5,18.5884,1,alNlXuBH5D
1,MS,hard,4,15.8448,0.5714285714285714,alNlXuBH5D
2,MS,easy,3,12.9115,1,alNlXuBH5D
2,MS,medium,5,16.4371,1,alNlXuBH5D
2,MS,hard,5,20.197,0.7142857142857143,alNlXuBH5D
3,MS,easy,3,12.6198,1,alNlXuBH5D
3,MS,medium,5,16.9869,1,alNlXuBH5D
3,MS,hard,6,41.061,0.8571428571428571,alNlXuBH5D
4,MS,easy,3,12.4268,1,alNlXuBH5D
4,MS,medium,4,16.9537,0.8,alNlXuBH5D
4,MS,hard,3,34.0844,0.42857142857142855,alNlXuBH5D
5,MS,easy,3,9.1353,1,alNlXuBH5D
5,MS,medium,5,20.1219,1,alNlXuBH5D
5,MS,hard,4,22.4468,0.5714285714285714,alNlXuBH5D
6,MS,easy,3,10.4691,1,alNlXuBH5D
6,MS,medium,5,19.8214,1,alNlXuBH5D
6,MS,hard,4,24.8727,0.5714285714285714,alNlXuBH5D
7,MS,easy,3,15.6948,1,alNlXuBH5D
7,MS,medium,5,22.8052,1,alNlXuBH5D
7,MS,hard,3,15.7033,0.42857142857142855,alNlXuBH5D
8,MS,easy,3,8.9685,1,alNlXuBH5D
8,MS,medium,4,33.4584,0.8,alNlXuBH5D
8,MS,hard,5,21.0392,0.7142857142857143,alNlXuBH5D
9,MS,easy,3,11.9861,1,alNlXuBH5D
9,MS,medium,4,24.7551,0.8,alNlXuBH5D
9,MS,hard,5,24.6386,0.7142857142857143,alNlXuBH5D
10,MS,easy,3,10.7937,1,alNlXuBH5D
10,MS,medium,5,40.5763,1,alNlXuBH5D
10,MS,hard,5,24.7224,0.7142857142857143,alNlXuBH5D
11,MS,easy,3,9.6603,1,alNlXuBH5D
11,MS,medium,4,29.7403,0.8,alNlXuBH5D
11,MS,hard,3,22.1384,0.42857142857142855,alNlXuBH5D
12,MS,easy,3,9.5602,1,alNlXuBH5D
12,MS,medium,5,17.8371,1,alNlXuBH5D
12,MS,hard,3,19.0041,0.42857142857142855,alNlXuBH5D
13,MS,easy,3,11.3775,1,alNlXuBH5D
13,MS,medium,5,16.6374,1,alNlXuBH5D
13,MS,hard,5,22.4216,0.7142857142857143,alNlXuBH5D
14,MS,easy,3,8.6353,1,alNlXuBH5D
14,MS,medium,5,15.1702,1,alNlXuBH5D
14,MS,hard,6,31.2584,0.8571428571428571,alNlXuBH5D
15,MS,easy,3,9.01,1,alNlXuBH5D
15,MS,medium,4,21.5382,0.8,alNlXuBH5D
15,MS,hard,4,23.756,0.5714285714285714,alNlXuBH5D
16,MS,easy,3,11.3536,1,alNlXuBH5D
16,MS,medium,5,16.6038,1,alNlXuBH5D
16,MS,hard,6,51.2631,0.8571428571428571,alNlXuBH5D
1,MS,easy,3,10.017,1,QLrSXxmCJy
1,MS,medium,5,18.2171,1,QLrSXxmCJy
1,MS,hard,5,25.2635,0.7142857142857143,QLrSXxmCJy
2,MS,easy,3,10.3343,1,QLrSXxmCJy
2,MS,medium,5,16.5719,1,QLrSXxmCJy
2,MS,hard,5,18.8199,0.7142857142857143,QLrSXxmCJy
3,MS,easy,3,13.368,1,QLrSXxmCJy
3,MS,medium,5,20.1534,1,QLrSXxmCJy
3,MS,hard,5,16.9681,0.7142857142857143,QLrSXxmCJy
4,MS,easy,3,11.8178,1,QLrSXxmCJy
4,MS,medium,5,16.4682,1,QLrSXxmCJy
4,MS,hard,7,24.5037,1,QLrSXxmCJy
5,MS,easy,3,13.0367,1,QLrSXxmCJy
5,MS,medium,5,17.0355,1,QLrSXxmCJy
5,MS,hard,6,19.4501,0.8571428571428571,QLrSXxmCJy
6,MS,easy,3,9.1846,1,QLrSXxmCJy
6,MS,medium,5,14.6186,1,QLrSXxmCJy
6,MS,hard,6,20.4691,0.8571428571428571,QLrSXxmCJy
7,MS,easy,3,11.5103,1,QLrSXxmCJy
7,MS,medium,5,17.7442,1,QLrSXxmCJy
7,MS,hard,4,20.9367,0.5714285714285714,QLrSXxmCJy
8,MS,easy,3,8.4179,1,QLrSXxmCJy
8,MS,medium,5,19.3352,1,QLrSXxmCJy
8,MS,hard,4,24.3214,0.5714285714285714,QLrSXxmCJy
9,MS,easy,3,9.3013,1,QLrSXxmCJy
9,MS,medium,5,14.7939,1,QLrSXxmCJy
9,MS,hard,5,28.0885,0.7142857142857143,QLrSXxmCJy
10,MS,easy,3,9.4506,1,QLrSXxmCJy
10,MS,medium,5,18.4356,1,QLrSXxmCJy
10,MS,hard,4,20.3359,0.5714285714285714,QLrSXxmCJy
11,MS,easy,3,10.4837,1,QLrSXxmCJy
11,MS,medium,5,12.9598,1,QLrSXxmCJy
11,MS,hard,4,19.3701,0.5714285714285714,QLrSXxmCJy
12,MS,easy,3,11.1535,1,QLrSXxmCJy
12,MS,medium,4,21.4847,0.8,QLrSXxmCJy
12,MS,hard,4,21.7853,0.5714285714285714,QLrSXxmCJy
13,MS,easy,3,10.5111,1,QLrSXxmCJy
13,MS,medium,5,20.8276,1,QLrSXxmCJy
13,MS,hard,7,26.6288,1,QLrSXxmCJy
14,MS,easy,3,8.8261,1,QLrSXxmCJy
14,MS,medium,5,14.9514,1,QLrSXxmCJy
14,MS,hard,5,25.013,0.7142857142857143,QLrSXxmCJy
15,MS,easy,3,8.7494,1,QLrSXxmCJy
15,MS,medium,4,17.6442,0.8,QLrSXxmCJy
15,MS,hard,5,17.0683,0.7142857142857143,QLrSXxmCJy
16,MS,easy,3,10.6675,1,QLrSXxmCJy
16,MS,medium,5,14.511,1,QLrSXxmCJy
16,MS,hard,5,23.7372,0.7142857142857143,QLrSXxmCJy
1,MS,easy,3,11.3823,1,8BtJMmB1PT
1,MS,medium,4,21.163,0.8,8BtJMmB1PT
1,MS,hard,6,38.0841,0.8571428571428571,8BtJMmB1PT
2,MS,easy,3,9.8772,1,8BtJMmB1PT
2,MS,medium,5,19.1346,1,8BtJMmB1PT
2,MS,hard,5,32.7002,0.7142857142857143,8BtJMmB1PT
3,MS,easy,3,9.2501,1,8BtJMmB1PT
3,MS,medium,5,19.6885,1,8BtJMmB1PT
3,MS,hard,7,45.9341,1,8BtJMmB1PT
4,MS,easy,3,12.8722,1,8BtJMmB1PT
4,MS,medium,5,19.0349,1,8BtJMmB1PT
4,MS,hard,6,45.3843,0.8571428571428571,8BtJMmB1PT
5,MS,easy,3,10.8338,1,8BtJMmB1PT
5,MS,medium,5,18.3171,1,8BtJMmB1PT
5,MS,hard,5,33.9495,0.7142857142857143,8BtJMmB1PT
6,MS,easy,3,11.7716,1,8BtJMmB1PT
6,MS,medium,5,24.9234,1,8BtJMmB1PT
6,MS,hard,7,30.7009,1,8BtJMmB1PT
7,MS,easy,3,10.2893,1,8BtJMmB1PT
7,MS,medium,5,93.7941,1,8BtJMmB1PT
7,MS,hard,7,35.6832,1,8BtJMmB1PT
8,MS,easy,3,13.4433,1,8BtJMmB1PT
8,MS,medium,4,29.3003,0.8,8BtJMmB1PT
8,MS,hard,5,28.3497,0.7142857142857143,8BtJMmB1PT
9,MS,easy,3,12.3235,1,8BtJMmB1PT
9,MS,medium,5,22.1006,1,8BtJMmB1PT
9,MS,hard,6,39.8841,0.8571428571428571,8BtJMmB1PT
10,MS,easy,3,9.9997,1,8BtJMmB1PT
10,MS,medium,5,19.817,1,8BtJMmB1PT
10,MS,hard,7,25.7838,1,8BtJMmB1PT
11,MS,easy,3,10.4681,1,8BtJMmB1PT
11,MS,medium,5,18.3334,1,8BtJMmB1PT
11,MS,hard,5,69.4007,0.7142857142857143,8BtJMmB1PT
12,MS,easy,3,11.0656,1,8BtJMmB1PT
12,MS,medium,5,16.3342,1,8BtJMmB1PT
12,MS,hard,5,47.5671,0.7142857142857143,8BtJMmB1PT
13,MS,easy,3,15.6271,1,8BtJMmB1PT
13,MS,medium,5,32.1431,1,8BtJMmB1PT
13,MS,hard,7,27.0739,1,8BtJMmB1PT
14,MS,easy,3,13.1598,1,8BtJMmB1PT
14,MS,medium,5,19.4096,1,8BtJMmB1PT
14,MS,hard,7,24.7994,1,8BtJMmB1PT
15,MS,easy,2,10.1447,0.6666666666666666,8BtJMmB1PT
15,MS,medium,5,30.1052,1,8BtJMmB1PT
15,MS,hard,7,28.8334,1,8BtJMmB1PT
16,MS,easy,3,11.3008,1,8BtJMmB1PT
16,MS,medium,5,15.5835,1,8BtJMmB1PT
16,MS,hard,5,26.3939,0.7142857142857143,8BtJMmB1PT
1,MS,easy,3,9.6751,1,8xVAczfPKp
1,MS,medium,5,18.3505,1,8xVAczfPKp
1,MS,hard,3,17.5884,0.42857142857142855,8xVAczfPKp
2,MS,easy,3,11.2071,1,8xVAczfPKp
2,MS,medium,5,53.5714,1,8xVAczfPKp
2,MS,hard,5,22.5305,0.7142857142857143,8xVAczfPKp
3,MS,easy,3,12.6887,1,8xVAczfPKp
3,MS,medium,5,14.787,1,8xVAczfPKp
3,MS,hard,4,17.8342,0.5714285714285714,8xVAczfPKp
4,MS,easy,3,10.6901,1,8xVAczfPKp
4,MS,medium,3,16.0023,0.6,8xVAczfPKp
4,MS,hard,6,21.0815,0.8571428571428571,8xVAczfPKp
5,MS,easy,3,11.4897,1,8xVAczfPKp
5,MS,medium,4,14.3032,0.8,8xVAczfPKp
5,MS,hard,4,18.8335,0.5714285714285714,8xVAczfPKp
6,MS,easy,3,10.5908,1,8xVAczfPKp
6,MS,medium,5,18.6161,1,8xVAczfPKp
6,MS,hard,6,26.5439,0.8571428571428571,8xVAczfPKp
7,MS,easy,3,9.775,1,8xVAczfPKp
7,MS,medium,4,17.0067,0.8,8xVAczfPKp
7,MS,hard,5,22.2972,0.7142857142857143,8xVAczfPKp
8,MS,easy,3,11.923,1,8xVAczfPKp
8,MS,medium,5,17.5812,1,8xVAczfPKp
8,MS,hard,4,22.1484,0.5714285714285714,8xVAczfPKp
9,MS,easy,3,11.1068,1,8xVAczfPKp
9,MS,medium,5,14.2702,1,8xVAczfPKp
9,MS,hard,5,25.5615,0.7142857142857143,8xVAczfPKp
10,MS,easy,3,7.7926,1,8xVAczfPKp
10,MS,medium,5,13.6874,1,8xVAczfPKp
10,MS,hard,7,23.9444,1,8xVAczfPKp
11,MS,easy,3,15.4368,1,8xVAczfPKp
11,MS,medium,5,18.8836,1,8xVAczfPKp
11,MS,hard,5,15.8196,0.7142857142857143,8xVAczfPKp
12,MS,easy,3,11.2071,1,8xVAczfPKp
12,MS,medium,5,13.6047,1,8xVAczfPKp
12,MS,hard,6,23.2799,0.8571428571428571,8xVAczfPKp
13,MS,easy,3,12.3723,1,8xVAczfPKp
13,MS,medium,2,17.5179,0.4,8xVAczfPKp
13,MS,hard,4,12.0397,0.5714285714285714,8xVAczfPKp
14,MS,easy,3,10.8894,1,8xVAczfPKp
14,MS,medium,5,17.6011,1,8xVAczfPKp
14,MS,hard,7,22.4804,1,8xVAczfPKp
15,MS,easy,3,10.9406,1,8xVAczfPKp
15,MS,medium,5,16.6186,1,8xVAczfPKp
15,MS,hard,7,23.7634,1,8xVAczfPKp
16,MS,easy,3,11.8888,1,8xVAczfPKp
16,MS,medium,2,11.4061,0.4,8xVAczfPKp
16,MS,hard,3,30.0406,0.42857142857142855,8xVAczfPKp
1,MS,easy,3,19.1108,1,P7WDUMyOEc
1,MS,medium,5,32.4114,1,P7WDUMyOEc
1,MS,hard,4,14.6267,0.5714285714285714,P7WDUMyOEc
2,MS,easy,2,14.9931,0.6666666666666666,P7WDUMyOEc
2,MS,medium,5,40.2556,1,P7WDUMyOEc
2,MS,hard,5,19.8775,0.7142857142857143,P7WDUMyOEc
3,MS,easy,0,0.0191,0,P7WDUMyOEc
3,MS,medium,5,26.8916,1,P7WDUMyOEc
3,MS,hard,4,16.6191,0.5714285714285714,P7WDUMyOEc
4,MS,easy,0,18.2171,0,P7WDUMyOEc
4,MS,medium,5,21.2744,1,P7WDUMyOEc
4,MS,hard,4,23.069,0.5714285714285714,P7WDUMyOEc
5,MS,easy,3,18.582,1,P7WDUMyOEc
5,MS,medium,5,35.0368,1,P7WDUMyOEc
5,MS,hard,4,16.5538,0.5714285714285714,P7WDUMyOEc
6,MS,easy,3,20.3769,1,P7WDUMyOEc
6,MS,medium,5,38.4288,1,P7WDUMyOEc
6,MS,hard,2,14.2269,0.2857142857142857,P7WDUMyOEc
7,MS,easy,3,12.2321,1,P7WDUMyOEc
7,MS,medium,5,25.8281,1,P7WDUMyOEc
7,MS,hard,5,17.1187,0.7142857142857143,P7WDUMyOEc
8,MS,easy,3,12.4653,1,P7WDUMyOEc
8,MS,medium,5,27.3238,1,P7WDUMyOEc
8,MS,hard,3,22.5035,0.42857142857142855,P7WDUMyOEc
9,MS,easy,3,14.9249,1,P7WDUMyOEc
9,MS,medium,5,28.0884,1,P7WDUMyOEc
9,MS,hard,2,13.8262,0.2857142857142857,P7WDUMyOEc
10,MS,easy,0,1.3848,0,P7WDUMyOEc
10,MS,medium,5,22.0724,1,P7WDUMyOEc
10,MS,hard,3,15.7221,0.42857142857142855,P7WDUMyOEc
11,MS,easy,3,12.9312,1,P7WDUMyOEc
11,MS,medium,5,35.9665,1,P7WDUMyOEc
11,MS,hard,4,21.3757,0.5714285714285714,P7WDUMyOEc
12,MS,easy,3,12.7656,1,P7WDUMyOEc
12,MS,medium,5,29.6175,1,P7WDUMyOEc
12,MS,hard,6,30.9461,0.8571428571428571,P7WDUMyOEc
13,MS,easy,3,12.1992,1,P7WDUMyOEc
13,MS,medium,5,27.4906,1,P7WDUMyOEc
13,MS,hard,6,20.7072,0.8571428571428571,P7WDUMyOEc
14,MS,easy,3,13.8947,1,P7WDUMyOEc
14,MS,medium,5,43.8117,1,P7WDUMyOEc
14,MS,hard,1,7.6428,0.14285714285714285,P7WDUMyOEc
15,MS,easy,3,14.6255,1,P7WDUMyOEc
15,MS,medium,5,23.3341,1,P7WDUMyOEc
15,MS,hard,3,12.3645,0.42857142857142855,P7WDUMyOEc
16,MS,easy,3,18.2825,1,P7WDUMyOEc
16,MS,medium,5,19.8107,1,P7WDUMyOEc
16,MS,hard,3,15.0228,0.42857142857142855,P7WDUMyOEc
1,MS,easy,3,7.81,1,cHjpJUhddy
1,MS,medium,5,16.336,1,cHjpJUhddy
1,MS,hard,3,14.863,0.42857142857142855,cHjpJUhddy
2,MS,easy,3,9.994,1,cHjpJUhddy
2,MS,medium,5,16.155,1,cHjpJUhddy
2,MS,hard,3,16.564,0.42857142857142855,cHjpJUhddy
3,MS,easy,3,7.577,1,cHjpJUhddy
3,MS,medium,5,15.588,1,cHjpJUhddy
3,MS,hard,5,12.085,0.7142857142857143,cHjpJUhddy
4,MS,easy,3,7.86,1,cHjpJUhddy
4,MS,medium,4,12.657,0.8,cHjpJUhddy
4,MS,hard,5,16.931,0.7142857142857143,cHjpJUhddy
5,MS,easy,3,7.094,1,cHjpJUhddy
5,MS,medium,5,14.872,1,cHjpJUhddy
5,MS,hard,5,17.965,0.7142857142857143,cHjpJUhddy
6,MS,easy,3,7.279,1,cHjpJUhddy
6,MS,medium,5,14.406,1,cHjpJUhddy
6,MS,hard,3,17.144,0.42857142857142855,cHjpJUhddy
7,MS,easy,3,6.895,1,cHjpJUhddy
7,MS,medium,4,23.249,0.8,cHjpJUhddy
7,MS,hard,3,16.595,0.42857142857142855,cHjpJUhddy
8,MS,easy,3,8.022,1,cHjpJUhddy
8,MS,medium,4,13.306,0.8,cHjpJUhddy
8,MS,hard,4,14.572,0.5714285714285714,cHjpJUhddy
9,MS,easy,3,8.647,1,cHjpJUhddy
9,MS,medium,4,14.706,0.8,cHjpJUhddy
9,MS,hard,5,17.569,0.7142857142857143,cHjpJUhddy
10,MS,easy,3,8.76,1,cHjpJUhddy
10,MS,medium,4,21.601,0.8,cHjpJUhddy
10,MS,hard,5,18.376,0.7142857142857143,cHjpJUhddy
11,MS,easy,3,7.156,1,cHjpJUhddy
11,MS,medium,5,14.656,1,cHjpJUhddy
11,MS,hard,4,15.281,0.5714285714285714,cHjpJUhddy
12,MS,easy,3,9.113,1,cHjpJUhddy
12,MS,medium,4,15.007,0.8,cHjpJUhddy
12,MS,hard,4,15.825,0.5714285714285714,cHjpJUhddy
13,MS,easy,3,8.431,1,cHjpJUhddy
13,MS,medium,5,14.238,1,cHjpJUhddy
13,MS,hard,6,19.615,0.8571428571428571,cHjpJUhddy
14,MS,easy,3,7.46,1,cHjpJUhddy
14,MS,medium,5,12.924,1,cHjpJUhddy
14,MS,hard,5,20.196,0.7142857142857143,cHjpJUhddy
15,MS,easy,3,7.061,1,cHjpJUhddy
15,MS,medium,3,16.201,0.6,cHjpJUhddy
15,MS,hard,5,28.576,0.7142857142857143,cHjpJUhddy
16,MS,easy,3,8.582,1,cHjpJUhddy
16,MS,medium,4,27.563,0.8,cHjpJUhddy
16,MS,hard,2,16.399,0.2857142857142857,cHjpJUhddy
1,MS,easy,3,11.7245,1,qI9h62z2Ku
1,MS,medium,5,13.4981,1,qI9h62z2Ku
1,MS,hard,4,22.3321,0.5714285714285714,qI9h62z2Ku
2,MS,easy,3,10.9993,1,qI9h62z2Ku
2,MS,medium,4,16.7323,0.8,qI9h62z2Ku
2,MS,hard,6,28.3151,0.8571428571428571,qI9h62z2Ku
3,MS,easy,3,14.2654,1,qI9h62z2Ku
3,MS,medium,5,16.9158,1,qI9h62z2Ku
3,MS,hard,3,21.6988,0.42857142857142855,qI9h62z2Ku
4,MS,easy,3,9.265900001,1,qI9h62z2Ku
4,MS,medium,5,13.582,1,qI9h62z2Ku
4,MS,hard,4,36.9483,0.5714285714285714,qI9h62z2Ku
5,MS,easy,3,10.4159,1,qI9h62z2Ku
5,MS,medium,5,21.0653,1,qI9h62z2Ku
5,MS,hard,2,15.9863,0.2857142857142857,qI9h62z2Ku
6,MS,easy,3,9.0826,1,qI9h62z2Ku
6,MS,medium,5,12.8322,1,qI9h62z2Ku
6,MS,hard,3,21.7696,0.42857142857142855,qI9h62z2Ku
7,MS,easy,3,8.7494,1,qI9h62z2Ku
7,MS,medium,4,31.9813,0.8,qI9h62z2Ku
7,MS,hard,4,17.5199,0.5714285714285714,qI9h62z2Ku
8,MS,easy,3,11.4491,1,qI9h62z2Ku
8,MS,medium,5,12.882,1,qI9h62z2Ku
8,MS,hard,4,29.9156,0.5714285714285714,qI9h62z2Ku
9,MS,easy,3,10.0992,1,qI9h62z2Ku
9,MS,medium,4,28.1649,0.8,qI9h62z2Ku
9,MS,hard,5,20.0487,0.7142857142857143,qI9h62z2Ku
10,MS,easy,3,8.9994,1,qI9h62z2Ku
10,MS,medium,5,15.4991,1,qI9h62z2Ku
10,MS,hard,3,28.5694,0.42857142857142855,qI9h62z2Ku
11,MS,easy,3,13.9325,1,qI9h62z2Ku
11,MS,medium,5,17.6659,1,qI9h62z2Ku
11,MS,hard,4,27.5661,0.5714285714285714,qI9h62z2Ku
12,MS,easy,3,8.6829,1,qI9h62z2Ku
12,MS,medium,4,27.3818,0.8,qI9h62z2Ku
12,MS,hard,4,28.9853,0.5714285714285714,qI9h62z2Ku
13,MS,easy,3,9.3824,1,qI9h62z2Ku
13,MS,medium,5,18.9483,1,qI9h62z2Ku
13,MS,hard,3,19.045,0.42857142857142855,qI9h62z2Ku
14,MS,easy,3,10.3157,1,qI9h62z2Ku
14,MS,medium,5,18.3654,1,qI9h62z2Ku
14,MS,hard,5,17.9321,0.7142857142857143,qI9h62z2Ku
15,MS,easy,3,8.815799999,1,qI9h62z2Ku
15,MS,medium,4,14.5824,0.8,qI9h62z2Ku
15,MS,hard,5,17.1532,0.7142857142857143,qI9h62z2Ku
16,MS,easy,3,7.6493,1,qI9h62z2Ku
16,MS,medium,4,16.0822,0.8,qI9h62z2Ku
16,MS,hard,3,16.6617,0.42857142857142855,qI9h62z2Ku
1,MS,easy,3,10.3856,1,OSi3LnpELr
1,MS,medium,5,16.4463,1,OSi3LnpELr
1,MS,hard,5,16.3803,0.7142857142857143,OSi3LnpELr
2,MS,easy,3,8.6813,1,OSi3LnpELr
2,MS,medium,4,22.9781,0.8,OSi3LnpELr
2,MS,hard,5,17.1465,0.7142857142857143,OSi3LnpELr
3,MS,easy,3,10.0978,1,OSi3LnpELr
3,MS,medium,5,15.8131,1,OSi3LnpELr
3,MS,hard,3,14.4969,0.42857142857142855,OSi3LnpELr
4,MS,easy,3,8.4262,1,OSi3LnpELr
4,MS,medium,5,15.8962,1,OSi3LnpELr
4,MS,hard,5,14.7131,0.7142857142857143,OSi3LnpELr
5,MS,easy,3,8.453,1,OSi3LnpELr
5,MS,medium,5,15.5969,1,OSi3LnpELr
5,MS,hard,6,19.3459,0.8571428571428571,OSi3LnpELr
6,MS,easy,3,7.9509,1,OSi3LnpELr
6,MS,medium,5,15.9457,1,OSi3LnpELr
6,MS,hard,4,16.913,0.5714285714285714,OSi3LnpELr
7,MS,easy,3,8.5968,1,OSi3LnpELr
7,MS,medium,4,19.0945,0.8,OSi3LnpELr
7,MS,hard,5,13.3799,0.7142857142857143,OSi3LnpELr
8,MS,easy,3,9.531,1,OSi3LnpELr
8,MS,medium,5,13.5797,1,OSi3LnpELr
8,MS,hard,5,14.9294,0.7142857142857143,OSi3LnpELr
9,MS,easy,3,11.1119,1,OSi3LnpELr
9,MS,medium,5,14.3474,1,OSi3LnpELr
9,MS,hard,5,15.7639,0.7142857142857143,OSi3LnpELr
10,MS,easy,3,8.6821,1,OSi3LnpELr
10,MS,medium,5,16.8959,1,OSi3LnpELr
10,MS,hard,5,18.4626,0.7142857142857143,OSi3LnpELr
11,MS,easy,3,10.5642,1,OSi3LnpELr
11,MS,medium,5,13.4136,1,OSi3LnpELr
11,MS,hard,4,10.9312,0.5714285714285714,OSi3LnpELr
12,MS,easy,3,9.3474,1,OSi3LnpELr
12,MS,medium,4,15.1453,0.8,OSi3LnpELr
12,MS,hard,4,19.062,0.5714285714285714,OSi3LnpELr
13,MS,easy,3,8.6982,1,OSi3LnpELr
13,MS,medium,3,20.028,0.6,OSi3LnpELr
13,MS,hard,7,25.8443,1,OSi3LnpELr
14,MS,easy,3,9.5857,1,OSi3LnpELr
14,MS,medium,4,13.7303,0.8,OSi3LnpELr
14,MS,hard,5,19.8947,0.7142857142857143,OSi3LnpELr
15,MS,easy,3,7.5975,1,OSi3LnpELr
15,MS,medium,5,22.2115,1,OSi3LnpELr
15,MS,hard,2,11.3302,0.2857142857142857,OSi3LnpELr
16,MS,easy,3,7.3645,1,OSi3LnpELr
16,MS,medium,5,14.9465,1,OSi3LnpELr
16,MS,hard,5,14.0631,0.7142857142857143,OSi3LnpELr
1,MS,easy,3,13.3819,1,m0mjdT90SU
1,MS,medium,5,23.3043,1,m0mjdT90SU
1,MS,hard,5,34.0355,0.7142857142857143,m0mjdT90SU
2,MS,easy,3,13.8693,1,m0mjdT90SU
2,MS,medium,5,26.0504,1,m0mjdT90SU
2,MS,hard,6,67.0717,0.8571428571428571,m0mjdT90SU
3,MS,easy,3,10.5394,1,m0mjdT90SU
3,MS,medium,4,23.3408,0.8,m0mjdT90SU
3,MS,hard,4,14.9056,0.5714285714285714,m0mjdT90SU
4,MS,easy,3,10.4163,1,m0mjdT90SU
4,MS,medium,5,17.7025,1,m0mjdT90SU
4,MS,hard,3,21.1345,0.42857142857142855,m0mjdT90SU
5,MS,easy,3,12.3796,1,m0mjdT90SU
5,MS,medium,5,25.3283,1,m0mjdT90SU
5,MS,hard,2,11.9117,0.2857142857142857,m0mjdT90SU
6,MS,easy,3,14.2624,1,m0mjdT90SU
6,MS,medium,4,29.4985,0.8,m0mjdT90SU
6,MS,hard,2,10.1655,0.2857142857142857,m0mjdT90SU
7,MS,easy,3,11.0129,1,m0mjdT90SU
7,MS,medium,5,19.3198,1,m0mjdT90SU
7,MS,hard,4,19.6353,0.5714285714285714,m0mjdT90SU
8,MS,easy,3,11.2117,1,m0mjdT90SU
8,MS,medium,5,18.2026,1,m0mjdT90SU
8,MS,hard,5,23.9075,0.7142857142857143,m0mjdT90SU
9,MS,easy,3,10.0634,1,m0mjdT90SU
9,MS,medium,5,16.9956,1,m0mjdT90SU
9,MS,hard,5,18.5096,0.7142857142857143,m0mjdT90SU
10,MS,easy,3,11.0738,1,m0mjdT90SU
10,MS,medium,5,20.6546,1,m0mjdT90SU
10,MS,hard,4,23.0598,0.5714285714285714,m0mjdT90SU
11,MS,easy,3,12.0521,1,m0mjdT90SU
11,MS,medium,5,16.3522,1,m0mjdT90SU
11,MS,hard,4,20.0942,0.5714285714285714,m0mjdT90SU
12,MS,easy,3,9.157,1,m0mjdT90SU
12,MS,medium,5,21.8104,1,m0mjdT90SU
12,MS,hard,5,20.4163,0.7142857142857143,m0mjdT90SU
13,MS,easy,3,10.6959,1,m0mjdT90SU
13,MS,medium,5,20.4267,1,m0mjdT90SU
13,MS,hard,4,19.2964,0.5714285714285714,m0mjdT90SU
14,MS,easy,3,9.9168,1,m0mjdT90SU
14,MS,medium,5,19.3056,1,m0mjdT90SU
14,MS,hard,5,19.6264,0.7142857142857143,m0mjdT90SU
15,MS,easy,3,10.687,1,m0mjdT90SU
15,MS,medium,5,17.7204,1,m0mjdT90SU
15,MS,hard,5,18.4027,0.7142857142857143,m0mjdT90SU
16,MS,easy,3,10.1192,1,m0mjdT90SU
16,MS,medium,4,17.5619,0.8,m0mjdT90SU
16,MS,hard,5,20.9188,0.7142857142857143,m0mjdT90SU
1,MS,easy,3,11.6182,1,I64skoy66n
1,MS,medium,4,11.4188,0.8,I64skoy66n
1,MS,hard,3,13.5183,0.42857142857142855,I64skoy66n
2,MS,easy,3,7.5222,1,I64skoy66n
2,MS,medium,4,14.816,0.8,I64skoy66n
2,MS,hard,2,12.2777,0.2857142857142857,I64skoy66n
3,MS,easy,3,9.1206,1,I64skoy66n
3,MS,medium,4,12.4605,0.8,I64skoy66n
3,MS,hard,4,19.1889,0.5714285714285714,I64skoy66n
4,MS,easy,3,7.6982,1,I64skoy66n
4,MS,medium,3,11.2522,0.6,I64skoy66n
4,MS,hard,3,20.6282,0.42857142857142855,I64skoy66n
5,MS,easy,3,11.5121,1,I64skoy66n
5,MS,medium,4,18.1512,0.8,I64skoy66n
5,MS,hard,3,15.8872,0.42857142857142855,I64skoy66n
6,MS,easy,3,8.5759,1,I64skoy66n
6,MS,medium,2,14.3548,0.4,I64skoy66n
6,MS,hard,3,14.3382,0.42857142857142855,I64skoy66n
7,MS,easy,2,15.0546,0.6666666666666666,I64skoy66n
7,MS,medium,2,11.0407,0.4,I64skoy66n
7,MS,hard,4,11.8237,0.5714285714285714,I64skoy66n
8,MS,easy,3,12.1233,1,I64skoy66n
8,MS,medium,3,15.6152,0.6,I64skoy66n
8,MS,hard,3,14.6764,0.42857142857142855,I64skoy66n
9,MS,easy,3,8.215,1,I64skoy66n
9,MS,medium,2,10.5791,0.4,I64skoy66n
9,MS,hard,3,9.9247,0.42857142857142855,I64skoy66n
10,MS,easy,3,11.4232,1,I64skoy66n
10,MS,medium,5,17.7516,1,I64skoy66n
10,MS,hard,4,17.0903,0.5714285714285714,I64skoy66n
11,MS,easy,3,9.0474,1,I64skoy66n
11,MS,medium,3,10.1631,0.6,I64skoy66n
11,MS,hard,4,14.004,0.5714285714285714,I64skoy66n
12,MS,easy,3,8.2147,1,I64skoy66n
12,MS,medium,3,14.0715,0.6,I64skoy66n
12,MS,hard,2,11.9615,0.2857142857142857,I64skoy66n
13,MS,easy,3,7.3107,1,I64skoy66n
13,MS,medium,3,11.5952,0.6,I64skoy66n
13,MS,hard,3,25.6617,0.42857142857142855,I64skoy66n
14,MS,easy,2,9.8302,0.6666666666666666,I64skoy66n
14,MS,medium,3,12.6447,0.6,I64skoy66n
14,MS,hard,4,14.6202,0.5714285714285714,I64skoy66n
15,MS,easy,3,12.8438,1,I64skoy66n
15,MS,medium,5,13.4557,1,I64skoy66n
15,MS,hard,4,13.5002,0.5714285714285714,I64skoy66n
16,MS,easy,3,10.6293,1,I64skoy66n
16,MS,medium,5,19.0724,1,I64skoy66n
16,MS,hard,2,13.9096,0.2857142857142857,I64skoy66n
1,MS,easy,3,8.365,1,l8OD3O4E3f
1,MS,medium,5,14.017,1,l8OD3O4E3f
1,MS,hard,5,12.748,0.7142857142857143,l8OD3O4E3f
2,MS,easy,3,6.999,1,l8OD3O4E3f
2,MS,medium,5,10.665,1,l8OD3O4E3f
2,MS,hard,3,18.149,0.42857142857142855,l8OD3O4E3f
3,MS,easy,3,7.518,1,l8OD3O4E3f
3,MS,medium,5,10.064,1,l8OD3O4E3f
3,MS,hard,4,18.517,0.5714285714285714,l8OD3O4E3f
4,MS,easy,3,5.383,1,l8OD3O4E3f
4,MS,medium,5,14.615,1,l8OD3O4E3f
4,MS,hard,5,16.332,0.7142857142857143,l8OD3O4E3f
5,MS,easy,3,6.215,1,l8OD3O4E3f
5,MS,medium,5,10.966,1,l8OD3O4E3f
5,MS,hard,2,19.465,0.2857142857142857,l8OD3O4E3f
6,MS,easy,3,6.982,1,l8OD3O4E3f
6,MS,medium,5,13.564,1,l8OD3O4E3f
6,MS,hard,3,9.582,0.42857142857142855,l8OD3O4E3f
7,MS,easy,3,6.433,1,l8OD3O4E3f
7,MS,medium,5,9.297,1,l8OD3O4E3f
7,MS,hard,5,8.314,0.7142857142857143,l8OD3O4E3f
8,MS,easy,3,5.748,1,l8OD3O4E3f
8,MS,medium,5,9.015,1,l8OD3O4E3f
8,MS,hard,5,14.849,0.7142857142857143,l8OD3O4E3f
9,MS,easy,3,5.783,1,l8OD3O4E3f
9,MS,medium,5,7.866,1,l8OD3O4E3f
9,MS,hard,5,11.348,0.7142857142857143,l8OD3O4E3f
10,MS,easy,3,6.366,1,l8OD3O4E3f
10,MS,medium,5,7.781,1,l8OD3O4E3f
10,MS,hard,5,8.849,0.7142857142857143,l8OD3O4E3f
11,MS,easy,3,13.55,1,l8OD3O4E3f
11,MS,medium,5,12.033,1,l8OD3O4E3f
11,MS,hard,5,10.882,0.7142857142857143,l8OD3O4E3f
12,MS,easy,3,5.133,1,l8OD3O4E3f
12,MS,medium,5,8.565,1,l8OD3O4E3f
12,MS,hard,5,10.015,0.7142857142857143,l8OD3O4E3f
13,MS,easy,3,6.766,1,l8OD3O4E3f
13,MS,medium,5,11.181,1,l8OD3O4E3f
13,MS,hard,5,13.699,0.7142857142857143,l8OD3O4E3f
14,MS,easy,3,7.883,1,l8OD3O4E3f
14,MS,medium,5,10.332,1,l8OD3O4E3f
14,MS,hard,2,9.465,0.2857142857142857,l8OD3O4E3f
15,MS,easy,3,5.666,1,l8OD3O4E3f
15,MS,medium,5,10.949,1,l8OD3O4E3f
15,MS,hard,5,9.631,0.7142857142857143,l8OD3O4E3f
16,MS,easy,3,5.216,1,l8OD3O4E3f
16,MS,medium,5,8.515,1,l8OD3O4E3f
16,MS,hard,5,10.115,0.7142857142857143,l8OD3O4E3f
1,MS,easy,3,16.947,1,s04AljyS4e
1,MS,medium,5,14.081,1,s04AljyS4e
1,MS,hard,5,15.937,0.7142857142857143,s04AljyS4e
2,MS,easy,3,9.329,1,s04AljyS4e
2,MS,medium,5,35.154,1,s04AljyS4e
2,MS,hard,3,21.852,0.42857142857142855,s04AljyS4e
3,MS,easy,3,10.156,1,s04AljyS4e
3,MS,medium,5,20.74,1,s04AljyS4e
3,MS,hard,3,19.979,0.42857142857142855,s04AljyS4e
4,MS,easy,3,24.049,1,s04AljyS4e
4,MS,medium,5,13.772,1,s04AljyS4e
4,MS,hard,1,30.13,0.14285714285714285,s04AljyS4e
5,MS,easy,3,8.627,1,s04AljyS4e
5,MS,medium,5,19.225,1,s04AljyS4e
5,MS,hard,2,15.686,0.2857142857142857,s04AljyS4e
6,MS,easy,3,8.955,1,s04AljyS4e
6,MS,medium,3,27.4,0.6,s04AljyS4e
6,MS,hard,4,17.412,0.5714285714285714,s04AljyS4e
7,MS,easy,3,8.096,1,s04AljyS4e
7,MS,medium,5,21.903,1,s04AljyS4e
7,MS,hard,4,14.764,0.5714285714285714,s04AljyS4e
8,MS,easy,3,9.674,1,s04AljyS4e
8,MS,medium,5,18.018,1,s04AljyS4e
8,MS,hard,6,24.839,0.8571428571428571,s04AljyS4e
9,MS,easy,3,9.889,1,s04AljyS4e
9,MS,medium,4,39.774,0.8,s04AljyS4e
9,MS,hard,4,19.454,0.5714285714285714,s04AljyS4e
10,MS,easy,3,15.925,1,s04AljyS4e
10,MS,medium,4,16.992,0.8,s04AljyS4e
10,MS,hard,4,23.862,0.5714285714285714,s04AljyS4e
11,MS,easy,3,10.236,1,s04AljyS4e
11,MS,medium,5,25.887,1,s04AljyS4e
11,MS,hard,4,17.58,0.5714285714285714,s04AljyS4e
12,MS,easy,3,10.476,1,s04AljyS4e
12,MS,medium,4,30.165,0.8,s04AljyS4e
12,MS,hard,4,21.203,0.5714285714285714,s04AljyS4e
13,MS,easy,3,9.513,1,s04AljyS4e
13,MS,medium,5,22.237,1,s04AljyS4e
13,MS,hard,4,20.702,0.5714285714285714,s04AljyS4e
14,MS,easy,3,10.144,1,s04AljyS4e
14,MS,medium,5,29.386,1,s04AljyS4e
14,MS,hard,2,32.292,0.2857142857142857,s04AljyS4e
15,MS,easy,3,24.449,1,s04AljyS4e
15,MS,medium,3,34.987,0.6,s04AljyS4e
15,MS,hard,6,32.158,0.8571428571428571,s04AljyS4e
16,MS,easy,3,8.905,1,s04AljyS4e
16,MS,medium,5,14.153,1,s04AljyS4e
16,MS,hard,4,15.085,0.5714285714285714,s04AljyS4e
1,MS,easy,3,13.1088,1,vsfwWZKL1V
1,MS,medium,4,16.0867,0.8,vsfwWZKL1V
1,MS,hard,3,18.3517,0.42857142857142855,vsfwWZKL1V
2,MS,easy,3,10.4246,1,vsfwWZKL1V
2,MS,medium,3,11.1238,0.6,vsfwWZKL1V
2,MS,hard,4,15.0195,0.5714285714285714,vsfwWZKL1V
3,MS,easy,3,11.2566,1,vsfwWZKL1V
3,MS,medium,5,14.7863,1,vsfwWZKL1V
3,MS,hard,1,17.6177,0.14285714285714285,vsfwWZKL1V
4,MS,easy,3,8.926,1,vsfwWZKL1V
4,MS,medium,5,20.6154,1,vsfwWZKL1V
4,MS,hard,5,19.3164,0.7142857142857143,vsfwWZKL1V
5,MS,easy,3,9.9581,1,vsfwWZKL1V
5,MS,medium,5,19.3166,1,vsfwWZKL1V
5,MS,hard,4,28.2758,0.5714285714285714,vsfwWZKL1V
6,MS,easy,3,10.4575,1,vsfwWZKL1V
6,MS,medium,5,17.4186,1,vsfwWZKL1V
6,MS,hard,4,16.8181,0.5714285714285714,vsfwWZKL1V
7,MS,easy,3,9.4598,1,vsfwWZKL1V
7,MS,medium,5,17.8508,1,vsfwWZKL1V
7,MS,hard,5,18.0172,0.7142857142857143,vsfwWZKL1V
8,MS,easy,3,11.2242,1,vsfwWZKL1V
8,MS,medium,4,17.6177,0.8,vsfwWZKL1V
8,MS,hard,4,16.6542,0.5714285714285714,vsfwWZKL1V
9,MS,easy,3,10.8574,1,vsfwWZKL1V
9,MS,medium,5,18.4508,1,vsfwWZKL1V
9,MS,hard,5,17.6525,0.7142857142857143,vsfwWZKL1V
10,MS,easy,3,12.5558,1,vsfwWZKL1V
10,MS,medium,5,17.2853,1,vsfwWZKL1V
10,MS,hard,4,19.9491,0.5714285714285714,vsfwWZKL1V
11,MS,easy,3,9.292,1,vsfwWZKL1V
11,MS,medium,5,33.6722,1,vsfwWZKL1V
11,MS,hard,5,18.2844,0.7142857142857143,vsfwWZKL1V
12,MS,easy,3,11.7898,1,vsfwWZKL1V
12,MS,medium,3,23.379,0.6,vsfwWZKL1V
12,MS,hard,3,11.2234,0.42857142857142855,vsfwWZKL1V
13,MS,easy,3,19.9164,1,vsfwWZKL1V
13,MS,medium,3,14.72,0.6,vsfwWZKL1V
13,MS,hard,5,18.384,0.7142857142857143,vsfwWZKL1V
14,MS,easy,3,12.7558,1,vsfwWZKL1V
14,MS,medium,5,16.2187,1,vsfwWZKL1V
14,MS,hard,5,18.1507,0.7142857142857143,vsfwWZKL1V
15,MS,easy,3,10.7238,1,vsfwWZKL1V
15,MS,medium,4,18.4169,0.8,vsfwWZKL1V
15,MS,hard,4,15.3868,0.5714285714285714,vsfwWZKL1V
16,MS,easy,3,11.2892,1,vsfwWZKL1V
16,MS,medium,5,17.4835,1,vsfwWZKL1V
16,MS,hard,3,17.3185,0.42857142857142855,vsfwWZKL1V
1,MS,easy,3,9.932,1,FDaGWmAPTr
1,MS,medium,4,15.0824,0.8,FDaGWmAPTr
