target_present,key,is_correct,rt,task,level,trial,id
0,left,1,1.157,ST,easy,1,3hMsm8I7aY
1,right,1,1.129,ST,easy,2,3hMsm8I7aY
0,left,1,0.948,ST,easy,3,3hMsm8I7aY
1,right,1,1.069,ST,easy,4,3hMsm8I7aY
0,left,1,0.818,ST,easy,5,3hMsm8I7aY
0,left,1,0.803,ST,easy,6,3hMsm8I7aY
1,right,1,0.755,ST,easy,7,3hMsm8I7aY
1,right,1,0.996,ST,easy,8,3hMsm8I7aY
1,right,1,0.948,ST,easy,9,3hMsm8I7aY
1,right,1,1.149,ST,easy,10,3hMsm8I7aY
0,left,1,1.349,ST,easy,11,3hMsm8I7aY
0,left,1,0.97,ST,easy,12,3hMsm8I7aY
0,left,1,0.862,ST,easy,13,3hMsm8I7aY
0,left,1,0.786,ST,easy,14,3hMsm8I7aY
1,right,1,0.921,ST,easy,15,3hMsm8I7aY
1,right,1,1.313,ST,easy,16,3hMsm8I7aY
1,right,1,1.612,ST,hard,1,3hMsm8I7aY
0,left,1,0.946,ST,hard,2,3hMsm8I7aY
1,left,0,1.273,ST,hard,3,3hMsm8I7aY
1,left,0,1.067,ST,hard,4,3hMsm8I7aY
0,right,0,1.13,ST,hard,5,3hMsm8I7aY
1,left,0,0.98,ST,hard,6,3hMsm8I7aY
0,left,1,1.203,ST,hard,7,3hMsm8I7aY
0,left,1,1.037,ST,hard,8,3hMsm8I7aY
1,right,1,1.589,ST,hard,9,3hMsm8I7aY
1,left,0,1.344,ST,hard,10,3hMsm8I7aY
1,right,1,2.513,ST,hard,11,3hMsm8I7aY
0,left,1,1.413,ST,hard,12,3hMsm8I7aY
0,right,0,4.121,ST,hard,13,3hMsm8I7aY
0,right,0,1.7,ST,hard,14,3hMsm8I7aY
1,right,1,0.869,ST,hard,15,3hMsm8I7aY
1,right,1,3.646,ST,hard,16,3hMsm8I7aY
0,left,1,0.681,ST,medium,1,3hMsm8I7aY
1,right,1,0.786,ST,medium,2,3hMsm8I7aY
1,right,1,0.837,ST,medium,3,3hMsm8I7aY
0,right,0,0.869,ST,medium,4,3hMsm8I7aY
0,left,1,2.27,ST,medium,5,3hMsm8I7aY
1,right,1,0.705,ST,medium,6,3hMsm8I7aY
0,left,1,0.93,ST,medium,7,3hMsm8I7aY
0,left,1,1.82,ST,medium,8,3hMsm8I7aY
0,right,0,1.919,ST,medium,9,3hMsm8I7aY
0,left,1,2.086,ST,medium,10,3hMsm8I7aY
0,left,1,1.698,ST,medium,11,3hMsm8I7aY
0,right,0,1.279,ST,medium,12,3hMsm8I7aY
1,right,1,0.848,ST,medium,13,3hMsm8I7aY
0,right,0,1.136,ST,medium,14,3hMsm8I7aY
0,left,1,1.012,ST,medium,15,3hMsm8I7aY
1,left,0,1.013,ST,medium,16,3hMsm8I7aY
0,left,1,1.295,ST,easy,1,TM72GyUTkf
1,right,1,1.04,ST,easy,2,TM72GyUTkf
0,left,1,1.03,ST,easy,3,TM72GyUTkf
1,right,1,1.419,ST,easy,4,TM72GyUTkf
0,left,1,1.007,ST,easy,5,TM72GyUTkf
1,right,1,1.056,ST,easy,6,TM72GyUTkf
1,left,0,1.014,ST,easy,7,TM72GyUTkf
1,right,1,2.107,ST,easy,8,TM72GyUTkf
0,left,1,0.814,ST,easy,9,TM72GyUTkf
0,left,1,0.88,ST,easy,10,TM72GyUTkf
1,right,1,0.864,ST,easy,11,TM72GyUTkf
0,left,1,1.688,ST,easy,12,TM72GyUTkf
1,right,1,0.884,ST,easy,13,TM72GyUTkf
1,right,1,1,ST,easy,14,TM72GyUTkf
1,right,1,0.864,ST,easy,15,TM72GyUTkf
0,left,1,1.684,ST,easy,16,TM72GyUTkf
1,left,0,1.729,ST,hard,1,TM72GyUTkf
0,left,1,1.382,ST,hard,2,TM72GyUTkf
1,left,0,1.131,ST,hard,3,TM72GyUTkf
1,right,1,2.626,ST,hard,4,TM72GyUTkf
0,left,1,1.035,ST,hard,5,TM72GyUTkf
0,left,1,3.317,ST,hard,6,TM72GyUTkf
0,left,1,1.33,ST,hard,7,TM72GyUTkf
0,left,1,1.64,ST,hard,8,TM72GyUTkf
0,left,1,1.382,ST,hard,9,TM72GyUTkf
1,right,1,0.946,ST,hard,10,TM72GyUTkf
0,left,1,0.914,ST,hard,11,TM72GyUTkf
1,left,0,1.467,ST,hard,12,TM72GyUTkf
0,left,1,0.88,ST,hard,13,TM72GyUTkf
0,left,1,0.864,ST,hard,14,TM72GyUTkf
0,left,1,1.396,ST,hard,15,TM72GyUTkf
0,left,1,0.897,ST,hard,16,TM72GyUTkf
0,right,0,1.228,ST,medium,1,TM72GyUTkf
0,left,1,0.784,ST,medium,2,TM72GyUTkf
1,right,1,1.972,ST,medium,3,TM72GyUTkf
0,left,1,1.214,ST,medium,4,TM72GyUTkf
0,left,1,1.022,ST,medium,5,TM72GyUTkf
0,left,1,1.584,ST,medium,6,TM72GyUTkf
0,left,1,2.585,ST,medium,7,TM72GyUTkf
1,right,1,1.216,ST,medium,8,TM72GyUTkf
0,right,0,1.118,ST,medium,9,TM72GyUTkf
1,left,0,0.988,ST,medium,10,TM72GyUTkf
0,left,1,1.083,ST,medium,11,TM72GyUTkf
0,left,1,0.864,ST,medium,12,TM72GyUTkf
0,left,1,1,ST,medium,13,TM72GyUTkf
1,right,1,0.981,ST,medium,14,TM72GyUTkf
1,right,1,1.034,ST,medium,15,TM72GyUTkf
0,left,1,0.899,ST,medium,16,TM72GyUTkf
1,right,1,1.0323,ST,easy,1,vXDUnP6HMG
0,left,1,0.7383,ST,easy,2,vXDUnP6HMG
0,left,1,0.73740000000000006,ST,easy,3,vXDUnP6HMG
0,left,1,0.76,ST,easy,4,vXDUnP6HMG
1,right,1,1.1885,ST,easy,5,vXDUnP6HMG
1,right,1,0.9623,ST,easy,6,vXDUnP6HMG
0,left,1,0.8883,ST,easy,7,vXDUnP6HMG
1,right,1,0.8538,ST,easy,8,vXDUnP6HMG
1,right,1,0.7096,ST,easy,9,vXDUnP6HMG
0,left,1,0.7172,ST,easy,10,vXDUnP6HMG
1,right,1,0.8863,ST,easy,11,vXDUnP6HMG
1,right,1,0.7546,ST,easy,12,vXDUnP6HMG
0,left,1,0.8224,ST,easy,13,vXDUnP6HMG
0,left,1,0.6017,ST,easy,14,vXDUnP6HMG
1,right,1,0.8874,ST,easy,15,vXDUnP6HMG
1,right,1,0.8535,ST,easy,16,vXDUnP6HMG
0,left,1,1.1835,ST,hard,1,vXDUnP6HMG
0,left,1,0.8088,ST,hard,2,vXDUnP6HMG
1,left,0,1.0529,ST,hard,3,vXDUnP6HMG
0,left,1,1.8889,ST,hard,4,vXDUnP6HMG
0,left,1,1.4019,ST,hard,5,vXDUnP6HMG
0,left,1,0.7065,ST,hard,6,vXDUnP6HMG
0,right,0,1.1529,ST,hard,7,vXDUnP6HMG
0,left,1,0.837,ST,hard,8,vXDUnP6HMG
1,right,1,0.9203,ST,hard,9,vXDUnP6HMG
1,right,1,0.7527,ST,hard,10,vXDUnP6HMG
0,left,1,0.8044,ST,hard,11,vXDUnP6HMG
0,left,1,0.7361,ST,hard,12,vXDUnP6HMG
1,left,0,0.8544,ST,hard,13,vXDUnP6HMG
1,left,0,1.3759,ST,hard,14,vXDUnP6HMG
1,right,1,1.0387,ST,hard,15,vXDUnP6HMG
0,left,1,1.4725,ST,hard,16,vXDUnP6HMG
1,right,1,0.9973,ST,medium,1,vXDUnP6HMG
0,left,1,1.0618,ST,medium,2,vXDUnP6HMG
0,left,1,0.7359,ST,medium,3,vXDUnP6HMG
0,left,1,0.8866,ST,medium,4,vXDUnP6HMG
0,left,1,0.6592,ST,medium,5,vXDUnP6HMG
0,left,1,0.687,ST,medium,6,vXDUnP6HMG
0,left,1,0.6861,ST,medium,7,vXDUnP6HMG
1,right,1,0.6563,ST,medium,8,vXDUnP6HMG
1,right,1,0.5708,ST,medium,9,vXDUnP6HMG
0,left,1,0.7675,ST,medium,10,vXDUnP6HMG
1,left,0,1.4373,ST,medium,11,vXDUnP6HMG
1,right,1,0.73740000000000006,ST,medium,12,vXDUnP6HMG
0,left,1,0.704,ST,medium,13,vXDUnP6HMG
0,left,1,0.6701,ST,medium,14,vXDUnP6HMG
0,left,1,1.2735,ST,medium,15,vXDUnP6HMG
1,right,1,1.7534,ST,medium,16,vXDUnP6HMG
1,right,1,1.3717,ST,easy,1,Go0eoSC1Hu
0,left,1,0.8761,ST,easy,2,Go0eoSC1Hu
0,left,1,0.8007,ST,easy,3,Go0eoSC1Hu
0,left,1,0.8091,ST,easy,4,Go0eoSC1Hu
1,right,1,0.7933,ST,easy,5,Go0eoSC1Hu
0,left,1,0.7848,ST,easy,6,Go0eoSC1Hu
1,right,1,0.6702,ST,easy,7,Go0eoSC1Hu
1,right,1,0.8617,ST,easy,8,Go0eoSC1Hu
0,left,1,0.5991,ST,easy,9,Go0eoSC1Hu
1,right,1,0.8505,ST,easy,10,Go0eoSC1Hu
0,left,1,0.7045,ST,easy,11,Go0eoSC1Hu
0,left,1,0.6663,ST,easy,12,Go0eoSC1Hu
1,right,1,0.7583,ST,easy,13,Go0eoSC1Hu
1,right,1,0.823,ST,easy,14,Go0eoSC1Hu
1,right,1,0.6742,ST,easy,15,Go0eoSC1Hu
1,right,1,0.616,ST,easy,16,Go0eoSC1Hu
1,right,1,1.3855,ST,hard,1,Go0eoSC1Hu
1,left,0,1.7484,ST,hard,2,Go0eoSC1Hu
1,left,0,1.0923,ST,hard,3,Go0eoSC1Hu
0,right,0,1.5542,ST,hard,4,Go0eoSC1Hu
0,left,1,1.0013,ST,hard,5,Go0eoSC1Hu
1,right,1,0.8679,ST,hard,6,Go0eoSC1Hu
1,right,1,0.9537,ST,hard,7,Go0eoSC1Hu
1,right,1,1.9745,ST,hard,8,Go0eoSC1Hu
1,left,0,2.191,ST,hard,9,Go0eoSC1Hu
0,left,1,0.9079,ST,hard,10,Go0eoSC1Hu
1,right,1,0.7005,ST,hard,11,Go0eoSC1Hu
0,left,1,1.0824,ST,hard,12,Go0eoSC1Hu
1,right,1,0.6862,ST,hard,13,Go0eoSC1Hu
0,left,1,1.7025,ST,hard,14,Go0eoSC1Hu
0,left,1,0.7403,ST,hard,15,Go0eoSC1Hu
0,left,1,0.7243,ST,hard,16,Go0eoSC1Hu
0,left,1,4.5782,ST,medium,1,Go0eoSC1Hu
1,right,1,3.0618,ST,medium,2,Go0eoSC1Hu
0,left,1,1.4592,ST,medium,3,Go0eoSC1Hu
1,right,1,1.7149,ST,medium,4,Go0eoSC1Hu
0,left,1,2.1006,ST,medium,5,Go0eoSC1Hu
0,left,1,1.5516,ST,medium,6,Go0eoSC1Hu
0,left,1,1.9544,ST,medium,7,Go0eoSC1Hu
0,left,1,1.5799,ST,medium,8,Go0eoSC1Hu
1,right,1,2.3233,ST,medium,9,Go0eoSC1Hu
1,right,1,1.3667,ST,medium,10,Go0eoSC1Hu
0,left,1,1.3435,ST,medium,11,Go0eoSC1Hu
1,right,1,1.6571,ST,medium,12,Go0eoSC1Hu
0,left,1,1.1841,ST,medium,13,Go0eoSC1Hu
1,right,1,1.2842,ST,medium,14,Go0eoSC1Hu
1,left,0,1.5835,ST,medium,15,Go0eoSC1Hu
0,left,1,12.3985,ST,medium,16,Go0eoSC1Hu
0,left,1,1.1098,ST,easy,1,uofo7FKPdo
1,right,1,0.9088,ST,easy,2,uofo7FKPdo
0,left,1,0.6296,ST,easy,3,uofo7FKPdo
1,right,1,1.1169,ST,easy,4,uofo7FKPdo
0,left,1,0.6443,ST,easy,5,uofo7FKPdo
1,right,1,0.5898,ST,easy,6,uofo7FKPdo
1,right,1,0.6862,ST,easy,7,uofo7FKPdo
1,right,1,0.9672,ST,easy,8,uofo7FKPdo
1,right,1,0.4921,ST,easy,9,uofo7FKPdo
1,right,1,0.5901,ST,easy,10,uofo7FKPdo
1,right,1,0.609,ST,easy,11,uofo7FKPdo
1,right,1,0.5909,ST,easy,12,uofo7FKPdo
0,left,1,0.7665,ST,easy,13,uofo7FKPdo
1,right,1,0.7102,ST,easy,14,uofo7FKPdo
0,left,1,0.7342,ST,easy,15,uofo7FKPdo
0,left,1,0.8084,ST,easy,16,uofo7FKPdo
0,left,1,0.6663,ST,hard,1,uofo7FKPdo
0,left,1,1.0984,ST,hard,2,uofo7FKPdo
0,left,1,0.7104,ST,hard,3,uofo7FKPdo
1,right,1,1.3263,ST,hard,4,uofo7FKPdo
0,left,1,0.8004,ST,hard,5,uofo7FKPdo
1,right,1,1.2474,ST,hard,6,uofo7FKPdo
0,right,0,0.7609,ST,hard,7,uofo7FKPdo
1,left,0,0.7095,ST,hard,8,uofo7FKPdo
1,right,1,0.4675,ST,hard,9,uofo7FKPdo
1,right,1,0.5941,ST,hard,10,uofo7FKPdo
0,left,1,0.801,ST,hard,11,uofo7FKPdo
1,right,1,0.6439,ST,hard,12,uofo7FKPdo
0,left,1,0.655,ST,hard,13,uofo7FKPdo
0,right,0,1.0019,ST,hard,14,uofo7FKPdo
1,right,1,0.5365,ST,hard,15,uofo7FKPdo
1,right,1,0.6316,ST,hard,16,uofo7FKPdo
0,left,1,0.7993,ST,medium,1,uofo7FKPdo
0,right,0,1.436,ST,medium,2,uofo7FKPdo
0,left,1,0.6848,ST,medium,3,uofo7FKPdo
0,left,1,0.5495,ST,medium,4,uofo7FKPdo
0,left,1,0.8684,ST,medium,5,uofo7FKPdo
1,left,0,0.6766,ST,medium,6,uofo7FKPdo
0,left,1,0.6064,ST,medium,7,uofo7FKPdo
1,left,0,0.6371,ST,medium,8,uofo7FKPdo
1,right,1,0.5811,ST,medium,9,uofo7FKPdo
1,right,1,2.5981,ST,medium,10,uofo7FKPdo
1,left,0,1.0303,ST,medium,11,uofo7FKPdo
1,right,1,1.8881,ST,medium,12,uofo7FKPdo
0,left,1,0.8486,ST,medium,13,uofo7FKPdo
0,left,1,0.8542,ST,medium,14,uofo7FKPdo
0,left,1,0.5719,ST,medium,15,uofo7FKPdo
1,right,1,0.7176,ST,medium,16,uofo7FKPdo
0,left,1,0.895,ST,easy,1,VEZTZ89Pge
1,right,1,1.266,ST,easy,2,VEZTZ89Pge
0,left,1,0.882,ST,easy,3,VEZTZ89Pge
0,left,1,1.264,ST,easy,4,VEZTZ89Pge
1,right,1,1.1,ST,easy,5,VEZTZ89Pge
0,left,1,0.62,ST,easy,6,VEZTZ89Pge
1,right,1,0.87,ST,easy,7,VEZTZ89Pge
0,left,1,0.833,ST,easy,8,VEZTZ89Pge
1,right,1,0.915,ST,easy,9,VEZTZ89Pge
1,right,1,1.181,ST,easy,10,VEZTZ89Pge
1,right,1,1.231,ST,easy,11,VEZTZ89Pge
1,left,0,1.749,ST,easy,12,VEZTZ89Pge
1,right,1,0.848,ST,easy,13,VEZTZ89Pge
0,left,1,1.722,ST,easy,14,VEZTZ89Pge
0,left,1,0.852,ST,easy,15,VEZTZ89Pge
1,right,1,0.83,ST,easy,16,VEZTZ89Pge
0,right,0,1.837,ST,hard,1,VEZTZ89Pge
1,left,0,1.102,ST,hard,2,VEZTZ89Pge
1,left,0,1.101,ST,hard,3,VEZTZ89Pge
1,right,1,1.066,ST,hard,4,VEZTZ89Pge
1,right,1,1.449,ST,hard,5,VEZTZ89Pge
0,left,1,0.965,ST,hard,6,VEZTZ89Pge
0,left,1,1.141,ST,hard,7,VEZTZ89Pge
1,right,1,1.45,ST,hard,8,VEZTZ89Pge
1,left,0,0.265,ST,hard,9,VEZTZ89Pge
0,left,1,3.535,ST,hard,10,VEZTZ89Pge
0,left,1,1.181,ST,hard,11,VEZTZ89Pge
0,right,0,1.386,ST,hard,12,VEZTZ89Pge
0,left,1,1.067,ST,hard,13,VEZTZ89Pge
0,right,0,1.116,ST,hard,14,VEZTZ89Pge
0,left,1,1.09,ST,hard,15,VEZTZ89Pge
0,left,1,1.212,ST,hard,16,VEZTZ89Pge
0,left,1,1.806,ST,medium,1,VEZTZ89Pge
1,right,1,1.235,ST,medium,2,VEZTZ89Pge
1,right,1,2.26,ST,medium,3,VEZTZ89Pge
0,left,1,1.607,ST,medium,4,VEZTZ89Pge
0,left,1,2.292,ST,medium,5,VEZTZ89Pge
0,left,1,1.758,ST,medium,6,VEZTZ89Pge
0,left,1,1.299,ST,medium,7,VEZTZ89Pge
0,left,1,1.316,ST,medium,8,VEZTZ89Pge
1,left,0,1.203,ST,medium,9,VEZTZ89Pge
0,right,0,1.435,ST,medium,10,VEZTZ89Pge
1,right,1,1.18,ST,medium,11,VEZTZ89Pge
0,left,1,1.406,ST,medium,12,VEZTZ89Pge
1,left,0,0.964,ST,medium,13,VEZTZ89Pge
1,left,0,1.141,ST,medium,14,VEZTZ89Pge
1,left,0,0.95,ST,medium,15,VEZTZ89Pge
0,left,1,2.047,ST,medium,16,VEZTZ89Pge
0,left,1,1.1415,ST,easy,1,HF94YUUt2C
0,left,1,1.1284,ST,easy,2,HF94YUUt2C
0,left,1,0.7173,ST,easy,3,HF94YUUt2C
0,left,1,0.8861,ST,easy,4,HF94YUUt2C
1,right,1,0.9373,ST,easy,5,HF94YUUt2C
1,right,1,0.707,ST,easy,6,HF94YUUt2C
0,left,1,0.8081,ST,easy,7,HF94YUUt2C
0,left,1,0.8349,ST,easy,8,HF94YUUt2C
1,right,1,0.91,ST,easy,9,HF94YUUt2C
0,left,1,0.7681,ST,easy,10,HF94YUUt2C
1,right,1,0.7432,ST,easy,11,HF94YUUt2C
1,right,1,0.7006,ST,easy,12,HF94YUUt2C
0,left,1,0.6939,ST,easy,13,HF94YUUt2C
0,left,1,1.0172,ST,easy,14,HF94YUUt2C
0,left,1,0.6179,ST,easy,15,HF94YUUt2C
1,right,1,0.7009,ST,easy,16,HF94YUUt2C
1,right,1,0.7858,ST,hard,1,HF94YUUt2C
0,left,1,0.7504,ST,hard,2,HF94YUUt2C
1,left,0,0.7672,ST,hard,3,HF94YUUt2C
1,left,0,0.9177,ST,hard,4,HF94YUUt2C
0,left,1,0.6134,ST,hard,5,HF94YUUt2C
0,left,1,0.8015,ST,hard,6,HF94YUUt2C
0,left,1,0.6883,ST,hard,7,HF94YUUt2C
1,left,0,1.0333,ST,hard,8,HF94YUUt2C
0,left,1,0.7539,ST,hard,9,HF94YUUt2C
1,right,1,0.7192,ST,hard,10,HF94YUUt2C
1,left,0,0.6393,ST,hard,11,HF94YUUt2C
1,left,0,0.7658,ST,hard,12,HF94YUUt2C
0,left,1,0.5727,ST,hard,13,HF94YUUt2C
0,left,1,0.5829,ST,hard,14,HF94YUUt2C
1,right,1,0.607,ST,hard,15,HF94YUUt2C
0,left,1,0.792,ST,hard,16,HF94YUUt2C
1,right,1,1.2251,ST,medium,1,HF94YUUt2C
0,left,1,2.1159,ST,medium,2,HF94YUUt2C
1,right,1,0.7719,ST,medium,3,HF94YUUt2C
0,left,1,0.8676,ST,medium,4,HF94YUUt2C
0,left,1,1.2051,ST,medium,5,HF94YUUt2C
0,left,1,1.0374,ST,medium,6,HF94YUUt2C
0,left,1,1.227,ST,medium,7,HF94YUUt2C
1,left,0,0.8505,ST,medium,8,HF94YUUt2C
0,left,1,1.0778,ST,medium,9,HF94YUUt2C
0,left,1,0.8995,ST,medium,10,HF94YUUt2C
0,left,1,0.6509,ST,medium,11,HF94YUUt2C
1,right,1,0.917,ST,medium,12,HF94YUUt2C
1,left,0,1.0411,ST,medium,13,HF94YUUt2C
1,right,1,0.9383,ST,medium,14,HF94YUUt2C
1,right,1,0.7669,ST,medium,15,HF94YUUt2C
0,left,1,0.7006,ST,medium,16,HF94YUUt2C
1,right,1,1.1842,ST,easy,1,z93bJWn4hw
0,left,1,0.9419,ST,easy,2,z93bJWn4hw
0,left,1,0.9661,ST,easy,3,z93bJWn4hw
0,left,1,0.8665,ST,easy,4,z93bJWn4hw
0,left,1,0.8326,ST,easy,5,z93bJWn4hw
0,left,1,0.7317,ST,easy,6,z93bJWn4hw
1,right,1,1.3164,ST,easy,7,z93bJWn4hw
0,left,1,0.6495,ST,easy,8,z93bJWn4hw
0,left,1,0.7049,ST,easy,9,z93bJWn4hw
0,left,1,1.2152,ST,easy,10,z93bJWn4hw
1,right,1,0.6165,ST,easy,11,z93bJWn4hw
1,right,1,1.0733,ST,easy,12,z93bJWn4hw
0,left,1,0.7592,ST,easy,13,z93bJWn4hw
1,right,1,0.6656,ST,easy,14,z93bJWn4hw
1,right,1,0.971,ST,easy,15,z93bJWn4hw
1,right,1,0.8147,ST,easy,16,z93bJWn4hw
0,left,1,2.5451,ST,hard,1,z93bJWn4hw
0,left,1,1.0408,ST,hard,2,z93bJWn4hw
0,left,1,2.5001,ST,hard,3,z93bJWn4hw
0,right,0,1.2228,ST,hard,4,z93bJWn4hw
0,left,1,1.318,ST,hard,5,z93bJWn4hw
0,left,1,3.0718,ST,hard,6,z93bJWn4hw
1,right,1,2.573,ST,hard,7,z93bJWn4hw
0,left,1,1.8298,ST,hard,8,z93bJWn4hw
0,right,0,1.6396,ST,hard,9,z93bJWn4hw
0,left,1,1.1831,ST,hard,10,z93bJWn4hw
1,right,1,1.1668,ST,hard,11,z93bJWn4hw
0,right,0,1.2302,ST,hard,12,z93bJWn4hw
1,right,1,1.584,ST,hard,13,z93bJWn4hw
0,left,1,1.3403,ST,hard,14,z93bJWn4hw
1,left,0,1.1392,ST,hard,15,z93bJWn4hw
1,right,1,2.1019,ST,hard,16,z93bJWn4hw
1,right,1,1.6062,ST,medium,1,z93bJWn4hw
1,left,0,1.3011,ST,medium,2,z93bJWn4hw
1,right,1,1.3043,ST,medium,3,z93bJWn4hw
0,left,1,1.411,ST,medium,4,z93bJWn4hw
0,left,1,1.0465,ST,medium,5,z93bJWn4hw
1,right,1,1.3044,ST,medium,6,z93bJWn4hw
0,left,1,1.1404,ST,medium,7,z93bJWn4hw
0,left,1,1.2058,ST,medium,8,z93bJWn4hw
0,left,1,2.0459,ST,medium,9,z93bJWn4hw
1,left,0,1.0634,ST,medium,10,z93bJWn4hw
0,left,1,2.3465,ST,medium,11,z93bJWn4hw
1,right,1,1.6128,ST,medium,12,z93bJWn4hw
1,left,0,0.9007,ST,medium,13,z93bJWn4hw
1,left,0,1.0628,ST,medium,14,z93bJWn4hw
0,left,1,0.9878,ST,medium,15,z93bJWn4hw
1,right,1,1.1795,ST,medium,16,z93bJWn4hw
0,left,1,0.6442,ST,easy,1,PsevAJnzJ0
0,left,1,0.9663,ST,easy,2,PsevAJnzJ0
0,left,1,0.647,ST,easy,3,PsevAJnzJ0
0,left,1,1.1675,ST,easy,4,PsevAJnzJ0
1,right,1,0.9399,ST,easy,5,PsevAJnzJ0
1,left,0,0.489,ST,easy,6,PsevAJnzJ0
1,right,1,1.0511,ST,easy,7,PsevAJnzJ0
1,right,1,0.7035,ST,easy,8,PsevAJnzJ0
1,right,1,0.7144,ST,easy,9,PsevAJnzJ0
1,right,1,0.5806,ST,easy,10,PsevAJnzJ0
0,left,1,1.5497,ST,easy,11,PsevAJnzJ0
0,left,1,0.9419,ST,easy,12,PsevAJnzJ0
1,right,1,0.7973,ST,easy,13,PsevAJnzJ0
1,right,1,0.733,ST,easy,14,PsevAJnzJ0
1,right,1,0.8634,ST,easy,15,PsevAJnzJ0
0,left,1,1.1056,ST,easy,16,PsevAJnzJ0
0,left,1,0.8821,ST,hard,1,PsevAJnzJ0
1,left,0,0.9681,ST,hard,2,PsevAJnzJ0
0,left,1,0.9013,ST,hard,3,PsevAJnzJ0
0,left,1,0.7844,ST,hard,4,PsevAJnzJ0
1,right,1,0.9006,ST,hard,5,PsevAJnzJ0
0,left,1,1.072,ST,hard,6,PsevAJnzJ0
1,left,0,1.1177,ST,hard,7,PsevAJnzJ0
0,right,0,1.3867,ST,hard,8,PsevAJnzJ0
0,left,1,1.1499,ST,hard,9,PsevAJnzJ0
0,left,1,1.1533,ST,hard,10,PsevAJnzJ0
0,left,1,1.0514,ST,hard,11,PsevAJnzJ0
0,left,1,0.7004,ST,hard,12,PsevAJnzJ0
1,left,0,2.4883,ST,hard,13,PsevAJnzJ0
1,left,0,1.9676,ST,hard,14,PsevAJnzJ0
1,left,0,0.9759,ST,hard,15,PsevAJnzJ0
0,left,1,3.0213,ST,hard,16,PsevAJnzJ0
0,left,1,0.996,ST,medium,1,PsevAJnzJ0
0,left,1,0.6676,ST,medium,2,PsevAJnzJ0
1,right,1,1.7242,ST,medium,3,PsevAJnzJ0
0,left,1,0.8831,ST,medium,4,PsevAJnzJ0
0,left,1,0.7723,ST,medium,5,PsevAJnzJ0
1,right,1,1.0176,ST,medium,6,PsevAJnzJ0
1,right,1,0.8476,ST,medium,7,PsevAJnzJ0
1,right,1,0.6147,ST,medium,8,PsevAJnzJ0
0,left,1,1.0188,ST,medium,9,PsevAJnzJ0
0,left,1,0.856,ST,medium,10,PsevAJnzJ0
0,left,1,0.867,ST,medium,11,PsevAJnzJ0
0,left,1,0.7675,ST,medium,12,PsevAJnzJ0
1,right,1,0.7263,ST,medium,13,PsevAJnzJ0
0,left,1,0.9979,ST,medium,14,PsevAJnzJ0
1,right,1,0.8013,ST,medium,15,PsevAJnzJ0
1,right,1,1.1673,ST,medium,16,PsevAJnzJ0
0,left,1,1.109,ST,easy,1,Piksbkqbn1
1,right,1,2.137,ST,easy,2,Piksbkqbn1
0,left,1,1.053,ST,easy,3,Piksbkqbn1
1,right,1,1.045,ST,easy,4,Piksbkqbn1
0,left,1,0.8,ST,easy,5,Piksbkqbn1
0,left,1,1.546,ST,easy,6,Piksbkqbn1
1,right,1,1.069,ST,easy,7,Piksbkqbn1
0,left,1,0.977,ST,easy,8,Piksbkqbn1
1,right,1,1.254,ST,easy,9,Piksbkqbn1
0,left,1,1.088,ST,easy,10,Piksbkqbn1
1,right,1,1.393,ST,easy,11,Piksbkqbn1
1,right,1,1.061,ST,easy,12,Piksbkqbn1
1,right,1,0.927,ST,easy,13,Piksbkqbn1
1,right,1,1.024,ST,easy,14,Piksbkqbn1
1,right,1,1.027,ST,easy,15,Piksbkqbn1
0,left,1,1.219,ST,easy,16,Piksbkqbn1
1,left,0,0.808,ST,hard,1,Piksbkqbn1
1,left,0,1.437,ST,hard,2,Piksbkqbn1
0,right,0,1.645,ST,hard,3,Piksbkqbn1
1,right,1,1.002,ST,hard,4,Piksbkqbn1
1,left,0,0.985,ST,hard,5,Piksbkqbn1
1,right,1,2.633,ST,hard,6,Piksbkqbn1
1,right,1,1.002,ST,hard,7,Piksbkqbn1
0,left,1,1.647,ST,hard,8,Piksbkqbn1
1,right,1,1.461,ST,hard,9,Piksbkqbn1
1,left,0,1.002,ST,hard,10,Piksbkqbn1
1,right,1,0.82,ST,hard,11,Piksbkqbn1
0,left,1,1.713,ST,hard,12,Piksbkqbn1
0,right,0,0.585,ST,hard,13,Piksbkqbn1
1,left,0,1.01,ST,hard,14,Piksbkqbn1
0,left,1,1.037,ST,hard,15,Piksbkqbn1
1,right,1,0.921,ST,hard,16,Piksbkqbn1
1,left,0,2.646,ST,medium,1,Piksbkqbn1
1,left,0,2.808,ST,medium,2,Piksbkqbn1
0,left,1,2.289,ST,medium,3,Piksbkqbn1
0,left,1,1.806,ST,medium,4,Piksbkqbn1
1,right,1,0.75,ST,medium,5,Piksbkqbn1
0,left,1,1.311,ST,medium,6,Piksbkqbn1
0,left,1,1.236,ST,medium,7,Piksbkqbn1
1,right,1,1.312,ST,medium,8,Piksbkqbn1
0,left,1,1.921,ST,medium,9,Piksbkqbn1
0,left,1,1.97,ST,medium,10,Piksbkqbn1
1,right,1,0.442,ST,medium,11,Piksbkqbn1
0,left,1,0.927,ST,medium,12,Piksbkqbn1
0,left,1,1.14,ST,medium,13,Piksbkqbn1
0,right,0,0.286,ST,medium,14,Piksbkqbn1
1,left,0,0.978,ST,medium,15,Piksbkqbn1
1,right,1,0.993,ST,medium,16,Piksbkqbn1
0,left,1,0.7752,ST,easy,1,dWejUN00z6
0,left,1,0.7012,ST,easy,2,dWejUN00z6
1,left,0,0.597,ST,easy,3,dWejUN00z6
0,left,1,0.6673,ST,easy,4,dWejUN00z6
1,right,1,0.9041,ST,easy,5,dWejUN00z6
1,right,1,1.3071,ST,easy,6,dWejUN00z6
1,right,1,0.6753,ST,easy,7,dWejUN00z6
0,left,1,0.5851,ST,easy,8,dWejUN00z6
0,left,1,1.3682,ST,easy,9,dWejUN00z6
1,right,1,0.7701,ST,easy,10,dWejUN00z6
1,right,1,0.9855,ST,easy,11,dWejUN00z6
0,left,1,0.6728,ST,easy,12,dWejUN00z6
1,right,1,0.6863,ST,easy,13,dWejUN00z6
1,right,1,0.7707,ST,easy,14,dWejUN00z6
0,left,1,0.6011,ST,easy,15,dWejUN00z6
1,right,1,0.5853,ST,easy,16,dWejUN00z6
1,right,1,1.3545,ST,hard,1,dWejUN00z6
0,left,1,1.8336,ST,hard,2,dWejUN00z6
1,left,0,1.484,ST,hard,3,dWejUN00z6
0,right,0,1.4349,ST,hard,4,dWejUN00z6
0,left,1,1.4173,ST,hard,5,dWejUN00z6
0,right,0,1.4618,ST,hard,6,dWejUN00z6
1,left,0,1.4043,ST,hard,7,dWejUN00z6
1,left,0,1.0522,ST,hard,8,dWejUN00z6
0,right,0,2.2678,ST,hard,9,dWejUN00z6
0,left,1,0.6249,ST,hard,10,dWejUN00z6
0,right,0,0.7115,ST,hard,11,dWejUN00z6
1,left,0,0.9722,ST,hard,12,dWejUN00z6
0,left,1,0.7509,ST,hard,13,dWejUN00z6
0,right,0,0.8849,ST,hard,14,dWejUN00z6
0,left,1,1.2007,ST,hard,15,dWejUN00z6
1,left,0,1.2284,ST,hard,16,dWejUN00z6
0,right,0,2.1068,ST,medium,1,dWejUN00z6
0,left,1,0.9499,ST,medium,2,dWejUN00z6
1,right,1,0.934,ST,medium,3,dWejUN00z6
0,left,1,0.7251,ST,medium,4,dWejUN00z6
0,left,1,2.0651,ST,medium,5,dWejUN00z6
1,left,0,1.4004,ST,medium,6,dWejUN00z6
1,right,1,1.0072,ST,medium,7,dWejUN00z6
0,left,1,1.2125,ST,medium,8,dWejUN00z6
0,left,1,1.3054,ST,medium,9,dWejUN00z6
0,left,1,1.0339,ST,medium,10,dWejUN00z6
0,left,1,1.2387,ST,medium,11,dWejUN00z6
0,left,1,2.2403,ST,medium,12,dWejUN00z6
1,right,1,2.0007,ST,medium,13,dWejUN00z6
0,left,1,0.9859,ST,medium,14,dWejUN00z6
0,left,1,0.8286,ST,medium,15,dWejUN00z6
1,right,1,1.1838,ST,medium,16,dWejUN00z6
0,left,1,1.015,ST,easy,1,qG1rKdXNBQ
1,right,1,0.729,ST,easy,2,qG1rKdXNBQ
1,right,1,0.764,ST,easy,3,qG1rKdXNBQ
1,left,0,0.636,ST,easy,4,qG1rKdXNBQ
1,right,1,0.766,ST,easy,5,qG1rKdXNBQ
0,left,1,1.405,ST,easy,6,qG1rKdXNBQ
0,left,1,0.743,ST,easy,7,qG1rKdXNBQ
1,right,1,1.059,ST,easy,8,qG1rKdXNBQ
0,left,1,1.138,ST,easy,9,qG1rKdXNBQ
0,left,1,1.434,ST,easy,10,qG1rKdXNBQ
1,right,1,1.298,ST,easy,11,qG1rKdXNBQ
0,right,0,2.871,ST,easy,12,qG1rKdXNBQ
1,right,1,0.666,ST,easy,13,qG1rKdXNBQ
0,left,1,0.753,ST,easy,14,qG1rKdXNBQ
0,left,1,0.636,ST,easy,15,qG1rKdXNBQ
1,right,1,0.69,ST,easy,16,qG1rKdXNBQ
1,right,1,1.102,ST,hard,1,qG1rKdXNBQ
1,left,0,0.917,ST,hard,2,qG1rKdXNBQ
1,left,0,1.688,ST,hard,3,qG1rKdXNBQ
0,left,1,0.99,ST,hard,4,qG1rKdXNBQ
0,left,1,1.466,ST,hard,5,qG1rKdXNBQ
1,right,1,1.108,ST,hard,6,qG1rKdXNBQ
0,left,1,1.339,ST,hard,7,qG1rKdXNBQ
1,right,1,3.356,ST,hard,8,qG1rKdXNBQ
1,right,1,1.18,ST,hard,9,qG1rKdXNBQ
0,left,1,0.714,ST,hard,10,qG1rKdXNBQ
0,left,1,1.123,ST,hard,11,qG1rKdXNBQ
1,right,1,0.689,ST,hard,12,qG1rKdXNBQ
0,left,1,1.707,ST,hard,13,qG1rKdXNBQ
0,left,1,1.682,ST,hard,14,qG1rKdXNBQ
1,right,1,0.84,ST,hard,15,qG1rKdXNBQ
1,right,1,0.822,ST,hard,16,qG1rKdXNBQ
1,right,1,0.933,ST,medium,1,qG1rKdXNBQ
0,left,1,0.921,ST,medium,2,qG1rKdXNBQ
1,right,1,0.972,ST,medium,3,qG1rKdXNBQ
1,right,1,0.961,ST,medium,4,qG1rKdXNBQ
0,left,1,0.722,ST,medium,5,qG1rKdXNBQ
1,right,1,1.402,ST,medium,6,qG1rKdXNBQ
1,right,1,2.336,ST,medium,7,qG1rKdXNBQ
0,left,1,1.137,ST,medium,8,qG1rKdXNBQ
0,left,1,0.955,ST,medium,9,qG1rKdXNBQ
1,right,1,1.75,ST,medium,10,qG1rKdXNBQ
0,left,1,1.264,ST,medium,11,qG1rKdXNBQ
0,left,1,0.914,ST,medium,12,qG1rKdXNBQ
0,left,1,0.878,ST,medium,13,qG1rKdXNBQ
0,left,1,1.024,ST,medium,14,qG1rKdXNBQ
1,right,1,0.801,ST,medium,15,qG1rKdXNBQ
0,left,1,1.171,ST,medium,16,qG1rKdXNBQ
1,right,1,1.1667,ST,easy,1,2dX8HaA5QM
1,right,1,1.0338,ST,easy,2,2dX8HaA5QM
1,right,1,1.0196,ST,easy,3,2dX8HaA5QM
1,right,1,0.9016,ST,easy,4,2dX8HaA5QM
1,right,1,0.6667,ST,easy,5,2dX8HaA5QM
0,left,1,1.2987,ST,easy,6,2dX8HaA5QM
0,left,1,0.7506,ST,easy,7,2dX8HaA5QM
0,left,1,0.9006,ST,easy,8,2dX8HaA5QM
1,right,1,2.1323,ST,easy,9,2dX8HaA5QM
1,right,1,0.9505,ST,easy,10,2dX8HaA5QM
1,right,1,0.7325,ST,easy,11,2dX8HaA5QM
1,left,0,2.2188,ST,easy,12,2dX8HaA5QM
0,left,1,0.6509,ST,easy,13,2dX8HaA5QM
1,right,1,0.8172,ST,easy,14,2dX8HaA5QM
0,left,1,0.7854,ST,easy,15,2dX8HaA5QM
1,right,1,0.6588,ST,easy,16,2dX8HaA5QM
1,right,1,1.0221,ST,hard,1,2dX8HaA5QM
1,left,0,0.8339,ST,hard,2,2dX8HaA5QM
1,right,1,0.8503,ST,hard,3,2dX8HaA5QM
1,left,0,0.817,ST,hard,4,2dX8HaA5QM
1,right,1,0.717,ST,hard,5,2dX8HaA5QM
1,right,1,0.6666,ST,hard,6,2dX8HaA5QM
1,left,0,0.7347,ST,hard,7,2dX8HaA5QM
0,left,1,0.6835,ST,hard,8,2dX8HaA5QM
1,left,0,0.8947,ST,hard,9,2dX8HaA5QM
0,left,1,0.7175,ST,hard,10,2dX8HaA5QM
1,left,0,0.7836,ST,hard,11,2dX8HaA5QM
1,right,1,1.7349,ST,hard,12,2dX8HaA5QM
1,left,0,0.633,ST,hard,13,2dX8HaA5QM
0,left,1,0.5167,ST,hard,14,2dX8HaA5QM
1,right,1,1.2526,ST,hard,15,2dX8HaA5QM
1,right,1,1.2996,ST,hard,16,2dX8HaA5QM
1,right,1,1.3945,ST,medium,1,2dX8HaA5QM
1,right,1,1.218,ST,medium,2,2dX8HaA5QM
1,right,1,1.4669,ST,medium,3,2dX8HaA5QM
1,right,1,1.0002,ST,medium,4,2dX8HaA5QM
1,left,0,1.0864,ST,medium,5,2dX8HaA5QM
0,left,1,0.8983,ST,medium,6,2dX8HaA5QM
0,left,1,1.3855,ST,medium,7,2dX8HaA5QM
1,right,1,0.8352,ST,medium,8,2dX8HaA5QM
1,left,0,0.867,ST,medium,9,2dX8HaA5QM
1,right,1,0.7498,ST,medium,10,2dX8HaA5QM
1,left,0,0.707,ST,medium,11,2dX8HaA5QM
1,right,1,0.8507,ST,medium,12,2dX8HaA5QM
0,left,1,0.5854,ST,medium,13,2dX8HaA5QM
1,left,0,0.8016,ST,medium,14,2dX8HaA5QM
1,left,0,0.8162,ST,medium,15,2dX8HaA5QM
0,right,0,1.4673,ST,medium,16,2dX8HaA5QM
0,left,1,1.461,ST,easy,1,jipsxYWATF
1,right,1,1.047,ST,easy,2,jipsxYWATF
1,right,1,1.348,ST,easy,3,jipsxYWATF
0,left,1,1.96,ST,easy,4,jipsxYWATF
1,right,1,2.363,ST,easy,5,jipsxYWATF
0,left,1,0.941,ST,easy,6,jipsxYWATF
1,right,1,1.205,ST,easy,7,jipsxYWATF
0,left,1,1.09,ST,easy,8,jipsxYWATF
1,right,1,1.189,ST,easy,9,jipsxYWATF
1,right,1,1.078,ST,easy,10,jipsxYWATF
0,left,1,0.981,ST,easy,11,jipsxYWATF
1,right,1,1.217,ST,easy,12,jipsxYWATF
1,right,1,1.031,ST,easy,13,jipsxYWATF
1,right,1,0.872,ST,easy,14,jipsxYWATF
0,left,1,1.04,ST,easy,15,jipsxYWATF
1,right,1,1.081,ST,easy,16,jipsxYWATF
1,right,1,0.864,ST,hard,1,jipsxYWATF
0,left,1,1.269,ST,hard,2,jipsxYWATF
1,right,1,1.081,ST,hard,3,jipsxYWATF
1,right,1,1.39,ST,hard,4,jipsxYWATF
0,left,1,1.056,ST,hard,5,jipsxYWATF
0,left,1,2.798,ST,hard,6,jipsxYWATF
1,left,0,1.34,ST,hard,7,jipsxYWATF
1,left,0,6.48,ST,hard,8,jipsxYWATF
1,right,1,0.893,ST,hard,9,jipsxYWATF
1,right,1,0.891,ST,hard,10,jipsxYWATF
0,left,1,1.079,ST,hard,11,jipsxYWATF
1,right,1,0.79,ST,hard,12,jipsxYWATF
0,left,1,1.314,ST,hard,13,jipsxYWATF
0,right,0,1.661,ST,hard,14,jipsxYWATF
1,left,0,1.341,ST,hard,15,jipsxYWATF
1,right,1,1.148,ST,hard,16,jipsxYWATF
1,right,1,1.58,ST,medium,1,jipsxYWATF
0,left,1,5.623,ST,medium,2,jipsxYWATF
1,right,1,1.214,ST,medium,3,jipsxYWATF
0,left,1,1.191,ST,medium,4,jipsxYWATF
1,right,1,1.307,ST,medium,5,jipsxYWATF
0,left,1,1.341,ST,medium,6,jipsxYWATF
1,right,1,1.35,ST,medium,7,jipsxYWATF
1,right,1,1.646,ST,medium,8,jipsxYWATF
1,right,1,0.91,ST,medium,9,jipsxYWATF
0,left,1,1.318,ST,medium,10,jipsxYWATF
0,left,1,2.644,ST,medium,11,jipsxYWATF
0,left,1,4.932,ST,medium,12,jipsxYWATF
1,right,1,0.866,ST,medium,13,jipsxYWATF
1,right,1,1.091,ST,medium,14,jipsxYWATF
1,right,1,1.502,ST,medium,15,jipsxYWATF
1,right,1,1.282,ST,medium,16,jipsxYWATF
0,left,1,0.8806,ST,easy,1,1W5HQaoCSR
0,left,1,1.4485,ST,easy,2,1W5HQaoCSR
1,right,1,2.8398,ST,easy,3,1W5HQaoCSR
0,left,1,2.3651,ST,easy,4,1W5HQaoCSR
0,left,1,0.833,ST,easy,5,1W5HQaoCSR
1,right,1,1.1232,ST,easy,6,1W5HQaoCSR
1,right,1,1.165,ST,easy,7,1W5HQaoCSR
1,right,1,2.265,ST,easy,8,1W5HQaoCSR
0,left,1,1.4262,ST,easy,9,1W5HQaoCSR
1,right,1,1.4903,ST,easy,10,1W5HQaoCSR
0,left,1,0.9075,ST,easy,11,1W5HQaoCSR
0,left,1,1.8581,ST,easy,12,1W5HQaoCSR
1,right,1,1.4595,ST,easy,13,1W5HQaoCSR
0,left,1,1.2306,ST,easy,14,1W5HQaoCSR
1,right,1,2.0908,ST,easy,15,1W5HQaoCSR
1,right,1,2.3822,ST,easy,16,1W5HQaoCSR
0,left,1,1.3975,ST,hard,1,1W5HQaoCSR
1,right,1,1.1813,ST,hard,2,1W5HQaoCSR
1,right,1,1.2549,ST,hard,3,1W5HQaoCSR
0,left,1,1.7885,ST,hard,4,1W5HQaoCSR
1,left,0,0.9346,ST,hard,5,1W5HQaoCSR
0,left,1,1.6806,ST,hard,6,1W5HQaoCSR
0,left,1,0.9276,ST,hard,7,1W5HQaoCSR
0,right,0,1.0922,ST,hard,8,1W5HQaoCSR
1,right,1,1.9824,ST,hard,9,1W5HQaoCSR
1,left,0,1.4704,ST,hard,10,1W5HQaoCSR
0,left,1,1.7322,ST,hard,11,1W5HQaoCSR
1,left,0,2.9214,ST,hard,12,1W5HQaoCSR
0,left,1,2.5225,ST,hard,13,1W5HQaoCSR
0,left,1,3.379,ST,hard,14,1W5HQaoCSR
0,left,1,1.6324,ST,hard,15,1W5HQaoCSR
0,right,0,1.2062,ST,hard,16,1W5HQaoCSR
0,left,1,2.5911,ST,medium,1,1W5HQaoCSR
0,left,1,1.224,ST,medium,2,1W5HQaoCSR
0,left,1,0.9384,ST,medium,3,1W5HQaoCSR
1,right,1,1.5949,ST,medium,4,1W5HQaoCSR
0,right,0,3.2333,ST,medium,5,1W5HQaoCSR
0,left,1,1.5248,ST,medium,6,1W5HQaoCSR
0,left,1,1.2233,ST,medium,7,1W5HQaoCSR
0,left,1,2.5573,ST,medium,8,1W5HQaoCSR
1,left,0,2.4824,ST,medium,9,1W5HQaoCSR
1,right,1,2.3979,ST,medium,10,1W5HQaoCSR
1,right,1,1.5617,ST,medium,11,1W5HQaoCSR
0,left,1,1.8577,ST,medium,12,1W5HQaoCSR
1,right,1,1.2251,ST,medium,13,1W5HQaoCSR
0,left,1,1.1407,ST,medium,14,1W5HQaoCSR
1,right,1,1.022,ST,medium,15,1W5HQaoCSR
1,left,0,3.7749,ST,medium,16,1W5HQaoCSR
0,left,1,1.113,ST,easy,1,qn7iE4w9eA
1,right,1,1.934,ST,easy,2,qn7iE4w9eA
1,left,0,1.05,ST,easy,3,qn7iE4w9eA
1,right,1,1.882,ST,easy,4,qn7iE4w9eA
0,left,1,1.105,ST,easy,5,qn7iE4w9eA
1,right,1,1.337,ST,easy,6,qn7iE4w9eA
0,left,1,0.747,ST,easy,7,qn7iE4w9eA
1,right,1,1.06,ST,easy,8,qn7iE4w9eA
1,right,1,1.173,ST,easy,9,qn7iE4w9eA
0,left,1,4.471,ST,easy,10,qn7iE4w9eA
1,right,1,1.17,ST,easy,11,qn7iE4w9eA
0,left,1,1.861,ST,easy,12,qn7iE4w9eA
1,right,1,1.068,ST,easy,13,qn7iE4w9eA
1,right,1,1.49,ST,easy,14,qn7iE4w9eA
1,left,0,3.971,ST,easy,15,qn7iE4w9eA
0,left,1,1.085,ST,easy,16,qn7iE4w9eA
1,right,1,2.706,ST,hard,1,qn7iE4w9eA
1,right,1,0.891,ST,hard,2,qn7iE4w9eA
0,left,1,1.016,ST,hard,3,qn7iE4w9eA
1,left,0,0.876,ST,hard,4,qn7iE4w9eA
0,left,1,0.78,ST,hard,5,qn7iE4w9eA
1,left,0,0.795,ST,hard,6,qn7iE4w9eA
1,left,0,0.735,ST,hard,7,qn7iE4w9eA
1,left,0,1.163,ST,hard,8,qn7iE4w9eA
1,right,1,0.849,ST,hard,9,qn7iE4w9eA
0,left,1,0.92,ST,hard,10,qn7iE4w9eA
1,right,1,0.768,ST,hard,11,qn7iE4w9eA
0,left,1,0.829,ST,hard,12,qn7iE4w9eA
0,right,0,1.352,ST,hard,13,qn7iE4w9eA
1,left,0,0.949,ST,hard,14,qn7iE4w9eA
0,left,1,0.645,ST,hard,15,qn7iE4w9eA
0,left,1,0.846,ST,hard,16,qn7iE4w9eA
0,left,1,3.558,ST,medium,1,qn7iE4w9eA
0,left,1,1.136,ST,medium,2,qn7iE4w9eA
0,left,1,1.874,ST,medium,3,qn7iE4w9eA
1,right,1,1.205,ST,medium,4,qn7iE4w9eA
0,left,1,0.945,ST,medium,5,qn7iE4w9eA
1,right,1,0.932,ST,medium,6,qn7iE4w9eA
1,right,1,1.203,ST,medium,7,qn7iE4w9eA
1,left,0,1.245,ST,medium,8,qn7iE4w9eA
0,right,0,1.953,ST,medium,9,qn7iE4w9eA
1,left,0,0.843,ST,medium,10,qn7iE4w9eA
1,right,1,1.02,ST,medium,11,qn7iE4w9eA
1,right,1,2.394,ST,medium,12,qn7iE4w9eA
1,left,0,0.843,ST,medium,13,qn7iE4w9eA
0,left,1,0.922,ST,medium,14,qn7iE4w9eA
1,right,1,0.789,ST,medium,15,qn7iE4w9eA
0,left,1,1.198,ST,medium,16,qn7iE4w9eA
1,right,1,1.3478,ST,easy,1,kuTZjru3VL
0,left,1,2.9016,ST,easy,2,kuTZjru3VL
0,left,1,2.9211,ST,easy,3,kuTZjru3VL
1,right,1,1.6007,ST,easy,4,kuTZjru3VL
0,left,1,4.1863,ST,easy,5,kuTZjru3VL
1,right,1,5.0674,ST,easy,6,kuTZjru3VL
1,right,1,1.0777,ST,easy,7,kuTZjru3VL
1,right,1,1.2517,ST,easy,8,kuTZjru3VL
1,left,0,1.7846,ST,easy,9,kuTZjru3VL
1,right,1,0.99,ST,easy,10,kuTZjru3VL
1,right,1,0.962,ST,easy,11,kuTZjru3VL
0,left,1,2.1451,ST,easy,12,kuTZjru3VL
0,left,1,1.334,ST,easy,13,kuTZjru3VL
0,left,1,1.8266,ST,easy,14,kuTZjru3VL
0,left,1,1.3754,ST,easy,15,kuTZjru3VL
1,right,1,0.9505,ST,easy,16,kuTZjru3VL
0,left,1,2.0547,ST,hard,1,kuTZjru3VL
0,left,1,1.0344,ST,hard,2,kuTZjru3VL
0,left,1,3.0243,ST,hard,3,kuTZjru3VL
0,left,1,1.3001,ST,hard,4,kuTZjru3VL
1,right,1,1.0698,ST,hard,5,kuTZjru3VL
0,left,1,2.9847,ST,hard,6,kuTZjru3VL
0,right,0,2.3729,ST,hard,7,kuTZjru3VL
0,left,1,3.0279,ST,hard,8,kuTZjru3VL
1,left,0,1.7453,ST,hard,9,kuTZjru3VL
0,left,1,2.8008,ST,hard,10,kuTZjru3VL
0,left,1,0.952,ST,hard,11,kuTZjru3VL
1,right,1,1.7847,ST,hard,12,kuTZjru3VL
0,right,0,1.6429,ST,hard,13,kuTZjru3VL
0,right,0,2.4146,ST,hard,14,kuTZjru3VL
0,left,1,2.2645,ST,hard,15,kuTZjru3VL
0,right,0,2.0361,ST,hard,16,kuTZjru3VL
0,left,1,1.3147,ST,medium,1,kuTZjru3VL
1,right,1,1.0321,ST,medium,2,kuTZjru3VL
0,left,1,1.036,ST,medium,3,kuTZjru3VL
1,left,0,2.3005,ST,medium,4,kuTZjru3VL
0,left,1,0.9688,ST,medium,5,kuTZjru3VL
0,left,1,2.3661,ST,medium,6,kuTZjru3VL
0,left,1,1.6033,ST,medium,7,kuTZjru3VL
0,left,1,0.8344,ST,medium,8,kuTZjru3VL
0,left,1,0.8498,ST,medium,9,kuTZjru3VL
1,right,1,3.9126,ST,medium,10,kuTZjru3VL
1,right,1,1.5032,ST,medium,11,kuTZjru3VL
1,right,1,1.1176,ST,medium,12,kuTZjru3VL
1,right,1,1.178,ST,medium,13,kuTZjru3VL
0,left,1,0.9187,ST,medium,14,kuTZjru3VL
1,right,1,6.2055,ST,medium,15,kuTZjru3VL
1,right,1,1.0189,ST,medium,16,kuTZjru3VL
0,left,1,0.9046,ST,easy,1,antN5ck5Ic
1,right,1,0.8064,ST,easy,2,antN5ck5Ic
0,left,1,0.774,ST,easy,3,antN5ck5Ic
1,right,1,1.4263,ST,easy,4,antN5ck5Ic
0,left,1,1.1203,ST,easy,5,antN5ck5Ic
1,right,1,0.8974,ST,easy,6,antN5ck5Ic
0,left,1,0.7318,ST,easy,7,antN5ck5Ic
0,left,1,0.7661,ST,easy,8,antN5ck5Ic
1,right,1,1.1025,ST,easy,9,antN5ck5Ic
0,left,1,0.8241,ST,easy,10,antN5ck5Ic
0,left,1,0.7158,ST,easy,11,antN5ck5Ic
0,left,1,0.5638,ST,easy,12,antN5ck5Ic
1,right,1,2.0826,ST,easy,13,antN5ck5Ic
1,right,1,2.4977,ST,easy,14,antN5ck5Ic
0,left,1,0.6162,ST,easy,15,antN5ck5Ic
0,left,1,0.5822,ST,easy,16,antN5ck5Ic
1,right,1,1.7324,ST,hard,1,antN5ck5Ic
0,right,0,3.1994,ST,hard,2,antN5ck5Ic
0,right,0,1.1671,ST,hard,3,antN5ck5Ic
0,left,1,0.9541,ST,hard,4,antN5ck5Ic
0,left,1,0.969,ST,hard,5,antN5ck5Ic
0,left,1,0.8669,ST,hard,6,antN5ck5Ic
1,right,1,1.234,ST,hard,7,antN5ck5Ic
1,left,0,1.0037,ST,hard,8,antN5ck5Ic
0,right,0,1.6649,ST,hard,9,antN5ck5Ic
1,left,0,0.9221,ST,hard,10,antN5ck5Ic
0,left,1,1.5817,ST,hard,11,antN5ck5Ic
0,left,1,0.9537,ST,hard,12,antN5ck5Ic
1,left,0,1.0718,ST,hard,13,antN5ck5Ic
1,left,0,1.0231,ST,hard,14,antN5ck5Ic
0,left,1,0.916,ST,hard,15,antN5ck5Ic
0,left,1,0.7885,ST,hard,16,antN5ck5Ic
0,left,1,1.1011,ST,medium,1,antN5ck5Ic
1,left,0,0.8659,ST,medium,2,antN5ck5Ic
1,right,1,1.0047,ST,medium,3,antN5ck5Ic
0,left,1,1.1156,ST,medium,4,antN5ck5Ic
0,left,1,0.9338,ST,medium,5,antN5ck5Ic
1,right,1,1.4082,ST,medium,6,antN5ck5Ic
0,left,1,0.8978,ST,medium,7,antN5ck5Ic
0,left,1,0.9488,ST,medium,8,antN5ck5Ic
0,left,1,0.7531,ST,medium,9,antN5ck5Ic
0,left,1,0.8043,ST,medium,10,antN5ck5Ic
1,right,1,1.1326,ST,medium,11,antN5ck5Ic
0,left,1,0.8152,ST,medium,12,antN5ck5Ic
0,left,1,0.6691,ST,medium,13,antN5ck5Ic
1,left,0,0.7198,ST,medium,14,antN5ck5Ic
1,right,1,1.3166,ST,medium,15,antN5ck5Ic
1,right,1,0.743,ST,medium,16,antN5ck5Ic
0,left,1,4.3161,ST,easy,1,lqSj6DxkoP
1,right,1,1.5681,ST,easy,2,lqSj6DxkoP
0,left,1,1.4044,ST,easy,3,lqSj6DxkoP
0,left,1,3.1937,ST,easy,4,lqSj6DxkoP
0,left,1,1.368,ST,easy,5,lqSj6DxkoP
1,right,1,1.5179,ST,easy,6,lqSj6DxkoP
1,right,1,1.4011,ST,easy,7,lqSj6DxkoP
0,left,1,0.9012,ST,easy,8,lqSj6DxkoP
0,left,1,0.9178,ST,easy,9,lqSj6DxkoP
0,left,1,0.8281,ST,easy,10,lqSj6DxkoP
0,left,1,1.373,ST,easy,11,lqSj6DxkoP
0,left,1,1.3726,ST,easy,12,lqSj6DxkoP
1,right,1,1.1419,ST,easy,13,lqSj6DxkoP
0,left,1,1.0233,ST,easy,14,lqSj6DxkoP
0,left,1,1.0673,ST,easy,15,lqSj6DxkoP
1,right,1,0.9677,ST,easy,16,lqSj6DxkoP
1,right,1,1.1699,ST,hard,1,lqSj6DxkoP
1,right,1,2.0982,ST,hard,2,lqSj6DxkoP
0,right,0,1.9856,ST,hard,3,lqSj6DxkoP
1,right,1,1.268,ST,hard,4,lqSj6DxkoP
0,left,1,1.5676,ST,hard,5,lqSj6DxkoP
1,right,1,3.2858,ST,hard,6,lqSj6DxkoP
1,right,1,1.515,ST,hard,7,lqSj6DxkoP
1,right,1,1.2647,ST,hard,8,lqSj6DxkoP
0,left,1,2.2187,ST,hard,9,lqSj6DxkoP
0,right,0,2.5155,ST,hard,10,lqSj6DxkoP
0,left,1,1.3858,ST,hard,11,lqSj6DxkoP
1,right,1,1.2151,ST,hard,12,lqSj6DxkoP
0,left,1,1.3046,ST,hard,13,lqSj6DxkoP
1,right,1,1.5473,ST,hard,14,lqSj6DxkoP
0,left,1,1.3547,ST,hard,15,lqSj6DxkoP
1,right,1,1.1894,ST,hard,16,lqSj6DxkoP
1,right,1,1.7659,ST,medium,1,lqSj6DxkoP
1,right,1,1.5359,ST,medium,2,lqSj6DxkoP
1,right,1,1.4178,ST,medium,3,lqSj6DxkoP
1,right,1,1.2651,ST,medium,4,lqSj6DxkoP
1,right,1,1.5913,ST,medium,5,lqSj6DxkoP
0,left,1,1.5056,ST,medium,6,lqSj6DxkoP
0,left,1,1.3856,ST,medium,7,lqSj6DxkoP
0,left,1,4.2176,ST,medium,8,lqSj6DxkoP
0,left,1,2.8989,ST,medium,9,lqSj6DxkoP
1,left,0,1.3232,ST,medium,10,lqSj6DxkoP
1,right,1,2.0313,ST,medium,11,lqSj6DxkoP
1,right,1,1.6487,ST,medium,12,lqSj6DxkoP
1,right,1,2.3351,ST,medium,13,lqSj6DxkoP
1,right,1,1.5178,ST,medium,14,lqSj6DxkoP
0,left,1,3.6831,ST,medium,15,lqSj6DxkoP
1,right,1,1.9311,ST,medium,16,lqSj6DxkoP
0,left,1,0.681,ST,easy,1,urmN2MGqMI
1,right,1,0.567,ST,easy,2,urmN2MGqMI
0,left,1,0.765,ST,easy,3,urmN2MGqMI
1,right,1,0.808,ST,easy,4,urmN2MGqMI
0,left,1,0.849,ST,easy,5,urmN2MGqMI
0,left,1,0.769,ST,easy,6,urmN2MGqMI
1,right,1,0.892,ST,easy,7,urmN2MGqMI
1,right,1,0.695,ST,easy,8,urmN2MGqMI
0,left,1,0.759,ST,easy,9,urmN2MGqMI
1,right,1,0.814,ST,easy,10,urmN2MGqMI
0,left,1,0.543,ST,easy,11,urmN2MGqMI
1,right,1,0.63,ST,easy,12,urmN2MGqMI
0,left,1,1.007,ST,easy,13,urmN2MGqMI
1,right,1,0.679,ST,easy,14,urmN2MGqMI
1,right,1,0.576,ST,easy,15,urmN2MGqMI
0,left,1,0.711,ST,easy,16,urmN2MGqMI
0,left,1,1.35,ST,hard,1,urmN2MGqMI
0,left,1,0.792,ST,hard,2,urmN2MGqMI
1,right,1,0.792,ST,hard,3,urmN2MGqMI
0,left,1,0.693,ST,hard,4,urmN2MGqMI
0,right,0,1.274,ST,hard,5,urmN2MGqMI
1,right,1,0.878,ST,hard,6,urmN2MGqMI
0,right,0,1.792,ST,hard,7,urmN2MGqMI
1,right,1,0.71,ST,hard,8,urmN2MGqMI
1,right,1,0.711,ST,hard,9,urmN2MGqMI
1,right,1,0.558,ST,hard,10,urmN2MGqMI
1,right,1,0.727,ST,hard,11,urmN2MGqMI
0,left,1,1.16,ST,hard,12,urmN2MGqMI
1,left,0,0.71,ST,hard,13,urmN2MGqMI
0,left,1,1.158,ST,hard,14,urmN2MGqMI
1,left,0,0.811,ST,hard,15,urmN2MGqMI
1,right,1,0.475,ST,hard,16,urmN2MGqMI
1,right,1,0.79,ST,medium,1,urmN2MGqMI
1,right,1,0.626,ST,medium,2,urmN2MGqMI
1,right,1,0.907,ST,medium,3,urmN2MGqMI
0,left,1,0.741,ST,medium,4,urmN2MGqMI
1,right,1,0.645,ST,medium,5,urmN2MGqMI
1,left,0,0.773,ST,medium,6,urmN2MGqMI
0,left,1,0.731,ST,medium,7,urmN2MGqMI
1,right,1,0.794,ST,medium,8,urmN2MGqMI
1,right,1,0.743,ST,medium,9,urmN2MGqMI
1,right,1,0.659,ST,medium,10,urmN2MGqMI
1,right,1,0.673,ST,medium,11,urmN2MGqMI
0,left,1,1.609,ST,medium,12,urmN2MGqMI
1,left,0,0.926,ST,medium,13,urmN2MGqMI
0,left,1,0.792,ST,medium,14,urmN2MGqMI
0,left,1,0.978,ST,medium,15,urmN2MGqMI
1,right,1,0.728,ST,medium,16,urmN2MGqMI
1,right,1,2.0969,ST,easy,1,d51zamtky2
0,left,1,0.9978,ST,easy,2,d51zamtky2
1,right,1,0.8467,ST,easy,3,d51zamtky2
1,right,1,1.1326,ST,easy,4,d51zamtky2
1,right,1,0.4685,ST,easy,5,d51zamtky2
1,right,1,0.7565,ST,easy,6,d51zamtky2
1,right,1,0.6055,ST,easy,7,d51zamtky2
1,right,1,1.1476,ST,easy,8,d51zamtky2
1,right,1,1.9641,ST,easy,9,d51zamtky2
1,left,0,1.1833,ST,easy,10,d51zamtky2
0,left,1,1.2404,ST,easy,11,d51zamtky2
0,left,1,0.6704,ST,easy,12,d51zamtky2
0,left,1,0.7809,ST,easy,13,d51zamtky2
0,left,1,1.1186,ST,easy,14,d51zamtky2
0,left,1,0.8327,ST,easy,15,d51zamtky2
1,right,1,2.18,ST,easy,16,d51zamtky2
0,left,1,1.3971,ST,hard,1,d51zamtky2
1,right,1,1.2333,ST,hard,2,d51zamtky2
0,left,1,1.0756,ST,hard,3,d51zamtky2
1,right,1,1.0344,ST,hard,4,d51zamtky2
1,left,0,0.7676,ST,hard,5,d51zamtky2
0,right,0,1.1008,ST,hard,6,d51zamtky2
0,left,1,0.6892,ST,hard,7,d51zamtky2
0,left,1,1.2005,ST,hard,8,d51zamtky2
0,right,0,0.9005,ST,hard,9,d51zamtky2
0,right,0,0.9332,ST,hard,10,d51zamtky2
0,left,1,1.3178,ST,hard,11,d51zamtky2
1,right,1,5.3855,ST,hard,12,d51zamtky2
1,right,1,0.6843,ST,hard,13,d51zamtky2
1,right,1,0.3345,ST,hard,14,d51zamtky2
1,right,1,0.4209,ST,hard,15,d51zamtky2
0,right,0,0.934,ST,hard,16,d51zamtky2
1,right,1,1.4275,ST,medium,1,d51zamtky2
0,left,1,0.707,ST,medium,2,d51zamtky2
1,right,1,0.9177,ST,medium,3,d51zamtky2
1,right,1,3.7848,ST,medium,4,d51zamtky2
1,right,1,0.6986,ST,medium,5,d51zamtky2
1,right,1,0.9808,ST,medium,6,d51zamtky2
1,right,1,1.7324,ST,medium,7,d51zamtky2
0,right,0,0.6473,ST,medium,8,d51zamtky2
1,left,0,0.8028,ST,medium,9,d51zamtky2
0,left,1,1.2487,ST,medium,10,d51zamtky2
0,left,1,0.9697,ST,medium,11,d51zamtky2
1,right,1,1.2035,ST,medium,12,d51zamtky2
1,left,0,1.4873,ST,medium,13,d51zamtky2
0,right,0,0.7488,ST,medium,14,d51zamtky2
1,right,1,1.0652,ST,medium,15,d51zamtky2
0,right,0,1.9662,ST,medium,16,d51zamtky2
0,left,1,1.1251,ST,easy,1,EgEJAn9pKN
0,left,1,0.5998,ST,easy,2,EgEJAn9pKN
1,right,1,0.72,ST,easy,3,EgEJAn9pKN
1,right,1,0.7544,ST,easy,4,EgEJAn9pKN
0,left,1,0.5367,ST,easy,5,EgEJAn9pKN
0,left,1,0.5881,ST,easy,6,EgEJAn9pKN
0,left,1,0.6061,ST,easy,7,EgEJAn9pKN
1,right,1,0.6098,ST,easy,8,EgEJAn9pKN
1,right,1,0.6372,ST,easy,9,EgEJAn9pKN
1,right,1,0.8499,ST,easy,10,EgEJAn9pKN
0,left,1,1.1885,ST,easy,11,EgEJAn9pKN
0,left,1,0.6104,ST,easy,12,EgEJAn9pKN
0,left,1,1.2155,ST,easy,13,EgEJAn9pKN
0,left,1,0.8986,ST,easy,14,EgEJAn9pKN
0,left,1,0.5204,ST,easy,15,EgEJAn9pKN
1,right,1,0.6497,ST,easy,16,EgEJAn9pKN
0,left,1,1.6776,ST,hard,1,EgEJAn9pKN
0,left,1,1.7672,ST,hard,2,EgEJAn9pKN
1,left,0,1.3999,ST,hard,3,EgEJAn9pKN
0,left,1,1.1336,ST,hard,4,EgEJAn9pKN
0,left,1,1.1311,ST,hard,5,EgEJAn9pKN
0,right,0,1.1493,ST,hard,6,EgEJAn9pKN
0,left,1,1.0319,ST,hard,7,EgEJAn9pKN
0,left,1,1.4943,ST,hard,8,EgEJAn9pKN
0,left,1,0.7894,ST,hard,9,EgEJAn9pKN
0,right,0,1.1599,ST,hard,10,EgEJAn9pKN
0,left,1,0.8585,ST,hard,11,EgEJAn9pKN
1,right,1,0.9869,ST,hard,12,EgEJAn9pKN
1,left,0,1.1408,ST,hard,13,EgEJAn9pKN
0,right,0,1.1167,ST,hard,14,EgEJAn9pKN
0,left,1,1.3721,ST,hard,15,EgEJAn9pKN
0,left,1,1.0208,ST,hard,16,EgEJAn9pKN
0,left,1,0.7809,ST,medium,1,EgEJAn9pKN
0,left,1,0.6247,ST,medium,2,EgEJAn9pKN
1,right,1,1.0337,ST,medium,3,EgEJAn9pKN
1,right,1,0.8142,ST,medium,4,EgEJAn9pKN
0,left,1,0.6488,ST,medium,5,EgEJAn9pKN
1,right,1,1.2163,ST,medium,6,EgEJAn9pKN
0,left,1,1.1756,ST,medium,7,EgEJAn9pKN
0,left,1,1.4041,ST,medium,8,EgEJAn9pKN
1,right,1,0.9234,ST,medium,9,EgEJAn9pKN
1,right,1,0.754,ST,medium,10,EgEJAn9pKN
1,right,1,0.7377,ST,medium,11,EgEJAn9pKN
1,right,1,0.799,ST,medium,12,EgEJAn9pKN
1,right,1,0.7103,ST,medium,13,EgEJAn9pKN
0,left,1,0.7037,ST,medium,14,EgEJAn9pKN
0,left,1,1.1115,ST,medium,15,EgEJAn9pKN
1,left,0,0.8567,ST,medium,16,EgEJAn9pKN
1,right,1,1.2651,ST,easy,1,W3y75sVKt1
0,left,1,1.2185,ST,easy,2,W3y75sVKt1
1,right,1,1.0678,ST,easy,3,W3y75sVKt1
1,right,1,1.1176,ST,easy,4,W3y75sVKt1
0,left,1,0.9735,ST,easy,5,W3y75sVKt1
1,right,1,0.9191,ST,easy,6,W3y75sVKt1
1,right,1,1.1845,ST,easy,7,W3y75sVKt1
0,left,1,0.9014,ST,easy,8,W3y75sVKt1
1,right,1,0.8677,ST,easy,9,W3y75sVKt1
1,right,1,0.8152,ST,easy,10,W3y75sVKt1
1,right,1,0.8859,ST,easy,11,W3y75sVKt1
0,left,1,0.798,ST,easy,12,W3y75sVKt1
0,left,1,1.0674,ST,easy,13,W3y75sVKt1
1,right,1,0.9412,ST,easy,14,W3y75sVKt1
0,left,1,1.0079,ST,easy,15,W3y75sVKt1
0,left,1,0.9978,ST,easy,16,W3y75sVKt1
0,left,1,1.7672,ST,hard,1,W3y75sVKt1
0,left,1,1.015,ST,hard,2,W3y75sVKt1
0,left,1,1.6986,ST,hard,3,W3y75sVKt1
0,right,0,1.701,ST,hard,4,W3y75sVKt1
1,right,1,1.5155,ST,hard,5,W3y75sVKt1
0,right,0,1.4486,ST,hard,6,W3y75sVKt1
0,right,0,1.4482,ST,hard,7,W3y75sVKt1
1,right,1,1.3611,ST,hard,8,W3y75sVKt1
1,right,1,0.9318,ST,hard,9,W3y75sVKt1
1,right,1,1.0515,ST,hard,10,W3y75sVKt1
1,right,1,1.5324,ST,hard,11,W3y75sVKt1
0,left,1,2.2021,ST,hard,12,W3y75sVKt1
1,left,0,2.4994,ST,hard,13,W3y75sVKt1
0,left,1,2.4656,ST,hard,14,W3y75sVKt1
0,left,1,1.4821,ST,hard,15,W3y75sVKt1
0,left,1,1.3987,ST,hard,16,W3y75sVKt1
0,left,1,1.9765,ST,medium,1,W3y75sVKt1
1,right,1,0.982,ST,medium,2,W3y75sVKt1
1,right,1,0.7131,ST,medium,3,W3y75sVKt1
1,right,1,1.0854,ST,medium,4,W3y75sVKt1
1,left,0,1.0587,ST,medium,5,W3y75sVKt1
1,right,1,2.8993,ST,medium,6,W3y75sVKt1
1,right,1,3.4286,ST,medium,7,W3y75sVKt1
1,right,1,1.1511,ST,medium,8,W3y75sVKt1
1,right,1,1.6653,ST,medium,9,W3y75sVKt1
0,left,1,0.9302,ST,medium,10,W3y75sVKt1
1,left,0,3.3989,ST,medium,11,W3y75sVKt1
0,left,1,1.0846,ST,medium,12,W3y75sVKt1
1,right,1,1.2515,ST,medium,13,W3y75sVKt1
1,right,1,2.4784,ST,medium,14,W3y75sVKt1
0,left,1,0.934,ST,medium,15,W3y75sVKt1
1,left,0,0.9196,ST,medium,16,W3y75sVKt1
1,left,0,1.1253,ST,easy,1,soqMs9Hfya
1,right,1,1.0443,ST,easy,2,soqMs9Hfya
0,left,1,0.9193,ST,easy,3,soqMs9Hfya
0,left,1,0.9349,ST,easy,4,soqMs9Hfya
0,left,1,0.7856,ST,easy,5,soqMs9Hfya
0,left,1,0.6935,ST,easy,6,soqMs9Hfya
0,left,1,0.6565,ST,easy,7,soqMs9Hfya
0,left,1,0.6081,ST,easy,8,soqMs9Hfya
1,right,1,0.8146,ST,easy,9,soqMs9Hfya
0,left,1,0.7983,ST,easy,10,soqMs9Hfya
1,right,1,0.8997,ST,easy,11,soqMs9Hfya
1,right,1,0.551,ST,easy,12,soqMs9Hfya
0,left,1,0.9824,ST,easy,13,soqMs9Hfya
1,right,1,1.0807,ST,easy,14,soqMs9Hfya
1,right,1,1.0151,ST,easy,15,soqMs9Hfya
1,right,1,1.065,ST,easy,16,soqMs9Hfya
1,left,0,3.3221,ST,hard,1,soqMs9Hfya
1,right,1,2.5973,ST,hard,2,soqMs9Hfya
0,left,1,1.2465,ST,hard,3,soqMs9Hfya
0,left,1,1.4516,ST,hard,4,soqMs9Hfya
1,right,1,1.2479,ST,hard,5,soqMs9Hfya
0,left,1,1.0897,ST,hard,6,soqMs9Hfya
0,left,1,1.336,ST,hard,7,soqMs9Hfya
1,left,0,1.2461,ST,hard,8,soqMs9Hfya
1,left,0,1.3458,ST,hard,9,soqMs9Hfya
1,left,0,1.1739,ST,hard,10,soqMs9Hfya
1,left,0,2.3258,ST,hard,11,soqMs9Hfya
1,left,0,1.3788,ST,hard,12,soqMs9Hfya
1,right,1,0.8357,ST,hard,13,soqMs9Hfya
0,right,0,1.2501,ST,hard,14,soqMs9Hfya
0,left,1,1.1825,ST,hard,15,soqMs9Hfya
1,left,0,1.3221,ST,hard,16,soqMs9Hfya
1,right,1,1.8658,ST,medium,1,soqMs9Hfya
0,left,1,1.5509,ST,medium,2,soqMs9Hfya
0,left,1,1.9086,ST,medium,3,soqMs9Hfya
1,right,1,1.3706,ST,medium,4,soqMs9Hfya
0,left,1,1.5298,ST,medium,5,soqMs9Hfya
0,left,1,1.5751,ST,medium,6,soqMs9Hfya
1,right,1,1.7391,ST,medium,7,soqMs9Hfya
0,left,1,3.1694,ST,medium,8,soqMs9Hfya
0,left,1,4.955,ST,medium,9,soqMs9Hfya
1,right,1,4.3319,ST,medium,10,soqMs9Hfya
0,left,1,1.4126,ST,medium,11,soqMs9Hfya
1,right,1,1.4011,ST,medium,12,soqMs9Hfya
0,left,1,3.2251,ST,medium,13,soqMs9Hfya
1,right,1,1.6991,ST,medium,14,soqMs9Hfya
1,right,1,1.184,ST,medium,15,soqMs9Hfya
0,left,1,2.6447,ST,medium,16,soqMs9Hfya
1,right,1,0.9573,ST,easy,1,YuaQwhP1ZU
1,right,1,0.8015,ST,easy,2,YuaQwhP1ZU
1,right,1,0.9232,ST,easy,3,YuaQwhP1ZU
1,right,1,0.6676,ST,easy,4,YuaQwhP1ZU
0,left,1,0.5549,ST,easy,5,YuaQwhP1ZU
1,right,1,0.9308,ST,easy,6,YuaQwhP1ZU
1,right,1,0.6058,ST,easy,7,YuaQwhP1ZU
0,left,1,0.5322,ST,easy,8,YuaQwhP1ZU
0,left,1,1.1173,ST,easy,9,YuaQwhP1ZU
0,left,1,0.4751,ST,easy,10,YuaQwhP1ZU
0,left,1,0.4527,ST,easy,11,YuaQwhP1ZU
1,right,1,0.6558,ST,easy,12,YuaQwhP1ZU
1,right,1,0.753,ST,easy,13,YuaQwhP1ZU
0,left,1,0.4688,ST,easy,14,YuaQwhP1ZU
1,right,1,0.5611,ST,easy,15,YuaQwhP1ZU
1,left,0,0.5965,ST,easy,16,YuaQwhP1ZU
1,left,0,0.9787,ST,hard,1,YuaQwhP1ZU
0,left,1,0.8732,ST,hard,2,YuaQwhP1ZU
1,right,1,0.8293,ST,hard,3,YuaQwhP1ZU
1,left,0,0.5882,ST,hard,4,YuaQwhP1ZU
0,left,1,0.6234,ST,hard,5,YuaQwhP1ZU
0,left,1,0.723,ST,hard,6,YuaQwhP1ZU
0,right,0,0.8236,ST,hard,7,YuaQwhP1ZU
1,right,1,0.8227,ST,hard,8,YuaQwhP1ZU
0,left,1,0.7581,ST,hard,9,YuaQwhP1ZU
1,left,0,0.5471,ST,hard,10,YuaQwhP1ZU
0,right,0,0.8021,ST,hard,11,YuaQwhP1ZU
1,right,1,0.6531,ST,hard,12,YuaQwhP1ZU
1,left,0,0.6309,ST,hard,13,YuaQwhP1ZU
1,left,0,0.737,ST,hard,14,YuaQwhP1ZU
0,left,1,0.4336,ST,hard,15,YuaQwhP1ZU
1,left,0,2.3696,ST,hard,16,YuaQwhP1ZU
0,left,1,1.595,ST,medium,1,YuaQwhP1ZU
0,left,1,2.8328,ST,medium,2,YuaQwhP1ZU
1,right,1,2.4626,ST,medium,3,YuaQwhP1ZU
0,left,1,1.2716,ST,medium,4,YuaQwhP1ZU
0,left,1,1.9502,ST,medium,5,YuaQwhP1ZU
1,right,1,1.9798,ST,medium,6,YuaQwhP1ZU
0,left,1,1.1426,ST,medium,7,YuaQwhP1ZU
0,left,1,0.8786,ST,medium,8,YuaQwhP1ZU
1,right,1,1.0224,ST,medium,9,YuaQwhP1ZU
0,left,1,1.6602,ST,medium,10,YuaQwhP1ZU
0,left,1,0.9707,ST,medium,11,YuaQwhP1ZU
0,left,1,1.0783,ST,medium,12,YuaQwhP1ZU
0,left,1,1.5258,ST,medium,13,YuaQwhP1ZU
0,left,1,1.909,ST,medium,14,YuaQwhP1ZU
1,right,1,2.3484,ST,medium,15,YuaQwhP1ZU
1,right,1,1.7728,ST,medium,16,YuaQwhP1ZU
0,left,1,1.286,ST,easy,1,2vlCeeOoXs
1,right,1,1.106,ST,easy,2,2vlCeeOoXs
0,left,1,1.062,ST,easy,3,2vlCeeOoXs
1,right,1,0.995,ST,easy,4,2vlCeeOoXs
0,left,1,0.973,ST,easy,5,2vlCeeOoXs
0,left,1,1.984,ST,easy,6,2vlCeeOoXs
1,right,1,1.233,ST,easy,7,2vlCeeOoXs
0,left,1,0.738,ST,easy,8,2vlCeeOoXs
1,right,1,0.796,ST,easy,9,2vlCeeOoXs
0,left,1,0.974,ST,easy,10,2vlCeeOoXs
0,left,1,0.715,ST,easy,11,2vlCeeOoXs
0,left,1,0.839,ST,easy,12,2vlCeeOoXs
1,right,1,1.044,ST,easy,13,2vlCeeOoXs
1,right,1,1.091,ST,easy,14,2vlCeeOoXs
0,left,1,0.76,ST,easy,15,2vlCeeOoXs
1,right,1,1.369,ST,easy,16,2vlCeeOoXs
0,left,1,1.525,ST,hard,1,2vlCeeOoXs
1,right,1,1.478,ST,hard,2,2vlCeeOoXs
0,left,1,1.177,ST,hard,3,2vlCeeOoXs
1,right,1,1.47,ST,hard,4,2vlCeeOoXs
0,left,1,1.087,ST,hard,5,2vlCeeOoXs
1,right,1,1.119,ST,hard,6,2vlCeeOoXs
1,left,0,1.534,ST,hard,7,2vlCeeOoXs
1,left,0,1.081,ST,hard,8,2vlCeeOoXs
0,left,1,1.327,ST,hard,9,2vlCeeOoXs
0,right,0,1.181,ST,hard,10,2vlCeeOoXs
1,left,0,1.444,ST,hard,11,2vlCeeOoXs
1,right,1,0.989,ST,hard,12,2vlCeeOoXs
1,right,1,0.847,ST,hard,13,2vlCeeOoXs
0,left,1,1.009,ST,hard,14,2vlCeeOoXs
0,left,1,1.661,ST,hard,15,2vlCeeOoXs
0,right,0,1.711,ST,hard,16,2vlCeeOoXs
0,left,1,2.744,ST,medium,1,2vlCeeOoXs
1,right,1,1.036,ST,medium,2,2vlCeeOoXs
1,left,0,1.204,ST,medium,3,2vlCeeOoXs
0,left,1,1.01,ST,medium,4,2vlCeeOoXs
1,left,0,1.039,ST,medium,5,2vlCeeOoXs
0,left,1,1.239,ST,medium,6,2vlCeeOoXs
0,left,1,1.128,ST,medium,7,2vlCeeOoXs
1,right,1,0.943,ST,medium,8,2vlCeeOoXs
1,right,1,1.76,ST,medium,9,2vlCeeOoXs
0,left,1,1.3,ST,medium,10,2vlCeeOoXs
1,left,0,1.463,ST,medium,11,2vlCeeOoXs
1,left,0,1.032,ST,medium,12,2vlCeeOoXs
0,left,1,1.154,ST,medium,13,2vlCeeOoXs
0,left,1,1.363,ST,medium,14,2vlCeeOoXs
0,left,1,0.93,ST,medium,15,2vlCeeOoXs
0,left,1,3.048,ST,medium,16,2vlCeeOoXs
0,left,1,0.5881,ST,easy,1,KCZtWafWV1
0,left,1,0.4732,ST,easy,2,KCZtWafWV1
0,left,1,0.5263,ST,easy,3,KCZtWafWV1
0,left,1,0.612,ST,easy,4,KCZtWafWV1
1,right,1,0.5838,ST,easy,5,KCZtWafWV1
1,right,1,0.509,ST,easy,6,KCZtWafWV1
1,right,1,0.5035,ST,easy,7,KCZtWafWV1
0,left,1,0.5421,ST,easy,8,KCZtWafWV1
0,left,1,0.7714,ST,easy,9,KCZtWafWV1
1,right,1,0.9576,ST,easy,10,KCZtWafWV1
1,right,1,0.6947,ST,easy,11,KCZtWafWV1
0,left,1,0.644,ST,easy,12,KCZtWafWV1
1,right,1,0.698,ST,easy,13,KCZtWafWV1
0,left,1,0.6167,ST,easy,14,KCZtWafWV1
1,right,1,0.7341,ST,easy,15,KCZtWafWV1
0,left,1,0.5799,ST,easy,16,KCZtWafWV1
0,left,1,2.6965,ST,hard,1,KCZtWafWV1
1,right,1,0.7794,ST,hard,2,KCZtWafWV1
1,right,1,0.9246,ST,hard,3,KCZtWafWV1
0,right,0,0.6813,ST,hard,4,KCZtWafWV1
1,left,0,0.8976,ST,hard,5,KCZtWafWV1
0,right,0,0.7336,ST,hard,6,KCZtWafWV1
1,right,1,0.6615,ST,hard,7,KCZtWafWV1
0,right,0,0.7321,ST,hard,8,KCZtWafWV1
1,left,0,0.6071,ST,hard,9,KCZtWafWV1
0,left,1,0.7464,ST,hard,10,KCZtWafWV1
1,left,0,0.6296,ST,hard,11,KCZtWafWV1
1,left,0,0.7455,ST,hard,12,KCZtWafWV1
1,left,0,0.6255,ST,hard,13,KCZtWafWV1
0,left,1,0.6475,ST,hard,14,KCZtWafWV1
0,right,0,1.007,ST,hard,15,KCZtWafWV1
1,left,0,0.7326,ST,hard,16,KCZtWafWV1
1,right,1,0.9316,ST,medium,1,KCZtWafWV1
1,right,1,0.958,ST,medium,2,KCZtWafWV1
0,left,1,0.6123,ST,medium,3,KCZtWafWV1
0,left,1,0.5764,ST,medium,4,KCZtWafWV1
1,right,1,0.6319,ST,medium,5,KCZtWafWV1
1,right,1,0.7475,ST,medium,6,KCZtWafWV1
1,left,0,0.6056,ST,medium,7,KCZtWafWV1
0,left,1,0.7976,ST,medium,8,KCZtWafWV1
0,left,1,0.5474,ST,medium,9,KCZtWafWV1
1,right,1,0.7325,ST,medium,10,KCZtWafWV1
0,left,1,0.5531,ST,medium,11,KCZtWafWV1
0,left,1,0.6208,ST,medium,12,KCZtWafWV1
0,left,1,0.8787,ST,medium,13,KCZtWafWV1
1,right,1,0.4,ST,medium,14,KCZtWafWV1
1,right,1,0.5477,ST,medium,15,KCZtWafWV1
1,left,0,0.9265,ST,medium,16,KCZtWafWV1
0,left,1,1.4778,ST,easy,1,n5pHkx5qnN
0,left,1,1.3528,ST,easy,2,n5pHkx5qnN
1,right,1,1.1459,ST,easy,3,n5pHkx5qnN
0,left,1,1.1548,ST,easy,4,n5pHkx5qnN
0,left,1,2.1512,ST,easy,5,n5pHkx5qnN
1,right,1,1.4843,ST,easy,6,n5pHkx5qnN
0,left,1,1.2678,ST,easy,7,n5pHkx5qnN
0,left,1,1.32,ST,easy,8,n5pHkx5qnN
0,left,1,2.5005,ST,easy,9,n5pHkx5qnN
1,right,1,1.6504,ST,easy,10,n5pHkx5qnN
1,right,1,1.1289,ST,easy,11,n5pHkx5qnN
0,left,1,1.1945,ST,easy,12,n5pHkx5qnN
1,right,1,3.5674,ST,easy,13,n5pHkx5qnN
1,right,1,1.6892,ST,easy,14,n5pHkx5qnN
0,left,1,2.8818,ST,easy,15,n5pHkx5qnN
0,left,1,3.7312,ST,easy,16,n5pHkx5qnN
0,left,1,3.6792,ST,hard,1,n5pHkx5qnN
1,left,0,1.4892,ST,hard,2,n5pHkx5qnN
0,left,1,1.1369,ST,hard,3,n5pHkx5qnN
0,left,1,1.0176,ST,hard,4,n5pHkx5qnN
1,right,1,4.773,ST,hard,5,n5pHkx5qnN
0,left,1,1.3467,ST,hard,6,n5pHkx5qnN
1,left,0,1.1503,ST,hard,7,n5pHkx5qnN
0,left,1,0.9149,ST,hard,8,n5pHkx5qnN
0,left,1,1.0821,ST,hard,9,n5pHkx5qnN
1,right,1,0.9432,ST,hard,10,n5pHkx5qnN
1,left,0,1.1367,ST,hard,11,n5pHkx5qnN
1,left,0,1.9338,ST,hard,12,n5pHkx5qnN
0,right,0,3.2843,ST,hard,13,n5pHkx5qnN
1,right,1,1.11,ST,hard,14,n5pHkx5qnN
1,left,0,1.2474,ST,hard,15,n5pHkx5qnN
1,left,0,2.937,ST,hard,16,n5pHkx5qnN
1,right,1,1.4482,ST,medium,1,n5pHkx5qnN
1,right,1,1.5476,ST,medium,2,n5pHkx5qnN
0,right,0,1.5506,ST,medium,3,n5pHkx5qnN
0,left,1,1.1795,ST,medium,4,n5pHkx5qnN
1,right,1,1.0672,ST,medium,5,n5pHkx5qnN
0,left,1,2.8965,ST,medium,6,n5pHkx5qnN
0,right,0,1.2982,ST,medium,7,n5pHkx5qnN
1,right,1,1.2724,ST,medium,8,n5pHkx5qnN
0,left,1,2.2795,ST,medium,9,n5pHkx5qnN
0,left,1,5.438,ST,medium,10,n5pHkx5qnN
1,right,1,1.2392,ST,medium,11,n5pHkx5qnN
1,right,1,1.1664,ST,medium,12,n5pHkx5qnN
1,right,1,1.4501,ST,medium,13,n5pHkx5qnN
0,left,1,2.5666,ST,medium,14,n5pHkx5qnN
1,left,0,1.419,ST,medium,15,n5pHkx5qnN
1,left,0,1.5335,ST,medium,16,n5pHkx5qnN
1,right,1,1.8199,ST,easy,1,wgRo2jLpXH
0,left,1,1.336,ST,easy,2,wgRo2jLpXH
1,right,1,1.7941,ST,easy,3,wgRo2jLpXH
1,right,1,1.621,ST,easy,4,wgRo2jLpXH
1,right,1,1.2288,ST,easy,5,wgRo2jLpXH
1,right,1,1.4341,ST,easy,6,wgRo2jLpXH
1,right,1,1.2697,ST,easy,7,wgRo2jLpXH
0,left,1,1.2438,ST,easy,8,wgRo2jLpXH
0,left,1,1.0268,ST,easy,9,wgRo2jLpXH
0,left,1,1.0118,ST,easy,10,wgRo2jLpXH
1,right,1,0.8609,ST,easy,11,wgRo2jLpXH
1,right,1,1.0249,ST,easy,12,wgRo2jLpXH
1,right,1,1.4651,ST,easy,13,wgRo2jLpXH
0,left,1,1.1899,ST,easy,14,wgRo2jLpXH
0,left,1,1.3867,ST,easy,15,wgRo2jLpXH
0,left,1,1.3902,ST,easy,16,wgRo2jLpXH
0,left,1,1.6366,ST,hard,1,wgRo2jLpXH
0,left,1,1.31,ST,hard,2,wgRo2jLpXH
0,left,1,1.2426,ST,hard,3,wgRo2jLpXH
0,left,1,1.1869,ST,hard,4,wgRo2jLpXH
1,right,1,1.6543,ST,hard,5,wgRo2jLpXH
0,right,0,2.198,ST,hard,6,wgRo2jLpXH
0,left,1,0.8522,ST,hard,7,wgRo2jLpXH
1,right,1,1.7125,ST,hard,8,wgRo2jLpXH
0,right,0,1.6443,ST,hard,9,wgRo2jLpXH
1,right,1,2.5841,ST,hard,10,wgRo2jLpXH
0,right,0,1.2735,ST,hard,11,wgRo2jLpXH
1,right,1,1.3511,ST,hard,12,wgRo2jLpXH
1,right,1,3.4686,ST,hard,13,wgRo2jLpXH
1,right,1,1.1159,ST,hard,14,wgRo2jLpXH
1,left,0,1.1183,ST,hard,15,wgRo2jLpXH
0,left,1,1.2112,ST,hard,16,wgRo2jLpXH
1,left,0,2.638,ST,medium,1,wgRo2jLpXH
1,right,1,2.2865,ST,medium,2,wgRo2jLpXH
1,right,1,2.0348,ST,medium,3,wgRo2jLpXH
1,left,0,1.367,ST,medium,4,wgRo2jLpXH
1,left,0,0.9956,ST,medium,5,wgRo2jLpXH
0,left,1,0.7338,ST,medium,6,wgRo2jLpXH
0,left,1,0.859,ST,medium,7,wgRo2jLpXH
0,left,1,0.8951,ST,medium,8,wgRo2jLpXH
0,left,1,1.0614,ST,medium,9,wgRo2jLpXH
1,right,1,1.5357,ST,medium,10,wgRo2jLpXH
0,left,1,0.9298,ST,medium,11,wgRo2jLpXH
1,left,0,1.3722,ST,medium,12,wgRo2jLpXH
0,left,1,1.0622,ST,medium,13,wgRo2jLpXH
0,left,1,1.2865,ST,medium,14,wgRo2jLpXH
1,right,1,1.2781,ST,medium,15,wgRo2jLpXH
0,left,1,1.0449,ST,medium,16,wgRo2jLpXH
0,left,1,2.0887,ST,easy,1,IMJ2Wgu1zI
0,left,1,1.4706,ST,easy,2,IMJ2Wgu1zI
1,right,1,0.5843,ST,easy,3,IMJ2Wgu1zI
1,right,1,1.1638,ST,easy,4,IMJ2Wgu1zI
0,left,1,1.2811,ST,easy,5,IMJ2Wgu1zI
0,left,1,1.106,ST,easy,6,IMJ2Wgu1zI
1,right,1,1.0005,ST,easy,7,IMJ2Wgu1zI
0,left,1,1.1911,ST,easy,8,IMJ2Wgu1zI
0,left,1,1.6818,ST,easy,9,IMJ2Wgu1zI
0,left,1,1.122,ST,easy,10,IMJ2Wgu1zI
0,left,1,1.1973,ST,easy,11,IMJ2Wgu1zI
1,right,1,0.8367,ST,easy,12,IMJ2Wgu1zI
0,left,1,0.9578,ST,easy,13,IMJ2Wgu1zI
1,right,1,0.7909,ST,easy,14,IMJ2Wgu1zI
0,left,1,1.7007,ST,easy,15,IMJ2Wgu1zI
1,right,1,0.755,ST,easy,16,IMJ2Wgu1zI
0,right,0,1.0645,ST,hard,1,IMJ2Wgu1zI
0,left,1,1.4272,ST,hard,2,IMJ2Wgu1zI
1,left,0,1.0466,ST,hard,3,IMJ2Wgu1zI
1,right,1,0.8186,ST,hard,4,IMJ2Wgu1zI
0,right,0,1.9399,ST,hard,5,IMJ2Wgu1zI
1,right,1,1.7339,ST,hard,6,IMJ2Wgu1zI
1,right,1,1.3902,ST,hard,7,IMJ2Wgu1zI
1,right,1,1.0086,ST,hard,8,IMJ2Wgu1zI
0,right,0,0.9146,ST,hard,9,IMJ2Wgu1zI
1,right,1,1.724,ST,hard,10,IMJ2Wgu1zI
1,right,1,1.0539,ST,hard,11,IMJ2Wgu1zI
1,right,1,0.9768,ST,hard,12,IMJ2Wgu1zI
0,right,0,0.9223,ST,hard,13,IMJ2Wgu1zI
1,right,1,0.8514,ST,hard,14,IMJ2Wgu1zI
1,left,0,1.8808,ST,hard,15,IMJ2Wgu1zI
1,right,1,0.8025,ST,hard,16,IMJ2Wgu1zI
0,right,0,3.6021,ST,medium,1,IMJ2Wgu1zI
1,right,1,1.1636,ST,medium,2,IMJ2Wgu1zI
1,right,1,0.6498,ST,medium,3,IMJ2Wgu1zI
0,left,1,1.424,ST,medium,4,IMJ2Wgu1zI
1,left,0,0.939,ST,medium,5,IMJ2Wgu1zI
0,right,0,1.0737,ST,medium,6,IMJ2Wgu1zI
0,left,1,1.3258,ST,medium,7,IMJ2Wgu1zI
1,right,1,2.1165,ST,medium,8,IMJ2Wgu1zI
1,right,1,1.1721,ST,medium,9,IMJ2Wgu1zI
0,left,1,1.2771,ST,medium,10,IMJ2Wgu1zI
0,left,1,2.9197,ST,medium,11,IMJ2Wgu1zI
0,right,0,1.0071,ST,medium,12,IMJ2Wgu1zI
1,left,0,1.4029,ST,medium,13,IMJ2Wgu1zI
0,right,0,0.9206,ST,medium,14,IMJ2Wgu1zI
0,left,1,1.056,ST,medium,15,IMJ2Wgu1zI
0,left,1,2.3642,ST,medium,16,IMJ2Wgu1zI
0,left,1,1.0118,ST,easy,1,S5rOjASl3o
1,right,1,1.9103,ST,easy,2,S5rOjASl3o
1,right,1,1.4266,ST,easy,3,S5rOjASl3o
0,left,1,1.2161,ST,easy,4,S5rOjASl3o
1,right,1,0.9388,ST,easy,5,S5rOjASl3o
1,right,1,0.9366,ST,easy,6,S5rOjASl3o
1,right,1,0.987,ST,easy,7,S5rOjASl3o
1,right,1,1.391,ST,easy,8,S5rOjASl3o
0,left,1,1.1378,ST,easy,9,S5rOjASl3o
1,right,1,1.7367,ST,easy,10,S5rOjASl3o
1,right,1,1.325,ST,easy,11,S5rOjASl3o
1,right,1,0.7129,ST,easy,12,S5rOjASl3o
0,left,1,1.0975,ST,easy,13,S5rOjASl3o
1,right,1,1.1413,ST,easy,14,S5rOjASl3o
1,right,1,0.9535,ST,easy,15,S5rOjASl3o
1,right,1,1.014,ST,easy,16,S5rOjASl3o
0,left,1,4.4437,ST,hard,1,S5rOjASl3o
1,left,0,1.0862,ST,hard,2,S5rOjASl3o
0,left,1,1.4103,ST,hard,3,S5rOjASl3o
1,left,0,2.9013,ST,hard,4,S5rOjASl3o
0,right,0,1.452,ST,hard,5,S5rOjASl3o
1,right,1,1.5038,ST,hard,6,S5rOjASl3o
1,left,0,2.5323,ST,hard,7,S5rOjASl3o
1,right,1,1.1419,ST,hard,8,S5rOjASl3o
1,left,0,1.4513,ST,hard,9,S5rOjASl3o
1,right,1,2.0526,ST,hard,10,S5rOjASl3o
0,left,1,1.0565,ST,hard,11,S5rOjASl3o
1,left,0,0.9308,ST,hard,12,S5rOjASl3o
0,left,1,1.3921,ST,hard,13,S5rOjASl3o
1,right,1,1.2306,ST,hard,14,S5rOjASl3o
1,right,1,1.0889,ST,hard,15,S5rOjASl3o
0,left,1,2.06,ST,hard,16,S5rOjASl3o
1,right,1,1.5153,ST,medium,1,S5rOjASl3o
0,right,0,1.926,ST,medium,2,S5rOjASl3o
0,left,1,1.031,ST,medium,3,S5rOjASl3o
1,left,0,0.9972,ST,medium,4,S5rOjASl3o
1,right,1,2.2202,ST,medium,5,S5rOjASl3o
0,left,1,0.9577,ST,medium,6,S5rOjASl3o
0,left,1,1.6135,ST,medium,7,S5rOjASl3o
0,left,1,1.1604,ST,medium,8,S5rOjASl3o
1,right,1,1.3973,ST,medium,9,S5rOjASl3o
1,right,1,4.2297,ST,medium,10,S5rOjASl3o
0,left,1,2.2213,ST,medium,11,S5rOjASl3o
1,right,1,1.2928,ST,medium,12,S5rOjASl3o
1,left,0,1.5231,ST,medium,13,S5rOjASl3o
0,left,1,0.964,ST,medium,14,S5rOjASl3o
1,left,0,5.0925,ST,medium,15,S5rOjASl3o
0,left,1,1.168,ST,medium,16,S5rOjASl3o
0,left,1,0.9693,ST,easy,1,LMH4MBXVwL
1,right,1,0.9413,ST,easy,2,LMH4MBXVwL
0,left,1,0.8868,ST,easy,3,LMH4MBXVwL
0,left,1,1.2521,ST,easy,4,LMH4MBXVwL
1,right,1,0.6939,ST,easy,5,LMH4MBXVwL
1,right,1,0.6267,ST,easy,6,LMH4MBXVwL
0,left,1,0.7218,ST,easy,7,LMH4MBXVwL
0,left,1,0.6607,ST,easy,8,LMH4MBXVwL
1,right,1,0.7946,ST,easy,9,LMH4MBXVwL
1,right,1,0.6835,ST,easy,10,LMH4MBXVwL
0,left,1,0.7303,ST,easy,11,LMH4MBXVwL
1,right,1,0.9107,ST,easy,12,LMH4MBXVwL
1,right,1,0.7451,ST,easy,13,LMH4MBXVwL
1,right,1,0.661,ST,easy,14,LMH4MBXVwL
1,right,1,0.6173,ST,easy,15,LMH4MBXVwL
0,left,1,0.7606,ST,easy,16,LMH4MBXVwL
1,right,1,1.1295,ST,hard,1,LMH4MBXVwL
0,left,1,5.2715,ST,hard,2,LMH4MBXVwL
0,left,1,0.8997,ST,hard,3,LMH4MBXVwL
1,right,1,0.836,ST,hard,4,LMH4MBXVwL
1,left,0,0.7008,ST,hard,5,LMH4MBXVwL
1,right,1,1.1441,ST,hard,6,LMH4MBXVwL
1,right,1,0.6985,ST,hard,7,LMH4MBXVwL
1,right,1,0.583,ST,hard,8,LMH4MBXVwL
1,right,1,0.3941,ST,hard,9,LMH4MBXVwL
1,right,1,0.666,ST,hard,10,LMH4MBXVwL
0,left,1,0.8275,ST,hard,11,LMH4MBXVwL
0,left,1,0.6991,ST,hard,12,LMH4MBXVwL
0,left,1,0.7679,ST,hard,13,LMH4MBXVwL
0,left,1,1.2485,ST,hard,14,LMH4MBXVwL
1,left,0,1.1564,ST,hard,15,LMH4MBXVwL
0,right,0,1.6971,ST,hard,16,LMH4MBXVwL
1,left,0,0.6653,ST,medium,1,LMH4MBXVwL
0,left,1,0.5842,ST,medium,2,LMH4MBXVwL
1,right,1,0.9402,ST,medium,3,LMH4MBXVwL
0,left,1,0.9835,ST,medium,4,LMH4MBXVwL
0,left,1,0.8445,ST,medium,5,LMH4MBXVwL
1,right,1,0.5946,ST,medium,6,LMH4MBXVwL
1,left,0,0.5687,ST,medium,7,LMH4MBXVwL
1,left,0,0.0486,ST,medium,8,LMH4MBXVwL
0,left,1,0.7134,ST,medium,9,LMH4MBXVwL
0,left,1,1.6314,ST,medium,10,LMH4MBXVwL
0,left,1,0.6707,ST,medium,11,LMH4MBXVwL
0,left,1,0.7153,ST,medium,12,LMH4MBXVwL
1,right,1,0.5521,ST,medium,13,LMH4MBXVwL
1,left,0,0.6192,ST,medium,14,LMH4MBXVwL
1,right,1,0.6688,ST,medium,15,LMH4MBXVwL
0,left,1,1.5607,ST,medium,16,LMH4MBXVwL
0,left,1,3.916,ST,easy,1,y4Sh5zF3gm
1,right,1,1.5116,ST,easy,2,y4Sh5zF3gm
0,left,1,1.3354,ST,easy,3,y4Sh5zF3gm
1,right,1,1.5404,ST,easy,4,y4Sh5zF3gm
1,right,1,1.1447,ST,easy,5,y4Sh5zF3gm
1,right,1,0.8353,ST,easy,6,y4Sh5zF3gm
1,right,1,0.7891,ST,easy,7,y4Sh5zF3gm
0,left,1,1.1653,ST,easy,8,y4Sh5zF3gm
0,left,1,1.5402,ST,easy,9,y4Sh5zF3gm
1,right,1,0.8825,ST,easy,10,y4Sh5zF3gm
0,left,1,1.4201,ST,easy,11,y4Sh5zF3gm
0,left,1,1.0813,ST,easy,12,y4Sh5zF3gm
1,right,1,1.1367,ST,easy,13,y4Sh5zF3gm
1,right,1,0.9289,ST,easy,14,y4Sh5zF3gm
0,left,1,1.1357,ST,easy,15,y4Sh5zF3gm
1,right,1,0.9427,ST,easy,16,y4Sh5zF3gm
1,right,1,0.9755,ST,hard,1,y4Sh5zF3gm
1,right,1,0.7771,ST,hard,2,y4Sh5zF3gm
0,left,1,0.8729,ST,hard,3,y4Sh5zF3gm
0,left,1,1.212,ST,hard,4,y4Sh5zF3gm
1,right,1,0.9274,ST,hard,5,y4Sh5zF3gm
0,right,0,1.0244,ST,hard,6,y4Sh5zF3gm
1,right,1,1.1866,ST,hard,7,y4Sh5zF3gm
0,left,1,1.3228,ST,hard,8,y4Sh5zF3gm
0,left,1,1.0738,ST,hard,9,y4Sh5zF3gm
1,right,1,0.7522,ST,hard,10,y4Sh5zF3gm
0,right,0,0.834,ST,hard,11,y4Sh5zF3gm
1,right,1,0.8538,ST,hard,12,y4Sh5zF3gm
1,right,1,0.5608,ST,hard,13,y4Sh5zF3gm
0,left,1,1.1023,ST,hard,14,y4Sh5zF3gm
0,left,1,1.0605,ST,hard,15,y4Sh5zF3gm
1,right,1,0.5654,ST,hard,16,y4Sh5zF3gm
0,left,1,1.099,ST,medium,1,y4Sh5zF3gm
0,left,1,0.9359,ST,medium,2,y4Sh5zF3gm
1,left,0,0.939,ST,medium,3,y4Sh5zF3gm
1,right,1,0.9778,ST,medium,4,y4Sh5zF3gm
0,left,1,0.9178,ST,medium,5,y4Sh5zF3gm
0,left,1,0.8943,ST,medium,6,y4Sh5zF3gm
1,right,1,0.9624,ST,medium,7,y4Sh5zF3gm
0,left,1,1.019,ST,medium,8,y4Sh5zF3gm
0,left,1,1.3112,ST,medium,9,y4Sh5zF3gm
0,left,1,1.1234,ST,medium,10,y4Sh5zF3gm
1,right,1,0.8725,ST,medium,11,y4Sh5zF3gm
1,right,1,0.7609,ST,medium,12,y4Sh5zF3gm
0,left,1,1.4566,ST,medium,13,y4Sh5zF3gm
1,right,1,1.3956,ST,medium,14,y4Sh5zF3gm
0,left,1,1.3237,ST,medium,15,y4Sh5zF3gm
1,right,1,0.936,ST,medium,16,y4Sh5zF3gm
0,left,1,0.8002,ST,easy,1,DoJgv77gQp
1,right,1,0.8759,ST,easy,2,DoJgv77gQp
0,left,1,0.6142,ST,easy,3,DoJgv77gQp
1,right,1,0.7068,ST,easy,4,DoJgv77gQp
1,right,1,0.8681,ST,easy,5,DoJgv77gQp
1,right,1,0.7797,ST,easy,6,DoJgv77gQp
1,right,1,0.7219,ST,easy,7,DoJgv77gQp
1,right,1,1.0375,ST,easy,8,DoJgv77gQp
1,right,1,0.7596,ST,easy,9,DoJgv77gQp
0,left,1,0.8876,ST,easy,10,DoJgv77gQp
1,right,1,0.7416,ST,easy,11,DoJgv77gQp
0,left,1,0.6773,ST,easy,12,DoJgv77gQp
0,left,1,0.7175,ST,easy,13,DoJgv77gQp
0,left,1,0.6247,ST,easy,14,DoJgv77gQp
0,left,1,0.704,ST,easy,15,DoJgv77gQp
1,right,1,0.6433,ST,easy,16,DoJgv77gQp
1,right,1,2.7033,ST,hard,1,DoJgv77gQp
0,left,1,1.9009,ST,hard,2,DoJgv77gQp
0,right,0,1.0012,ST,hard,3,DoJgv77gQp
0,left,1,0.8176,ST,hard,4,DoJgv77gQp
0,right,0,0.9462,ST,hard,5,DoJgv77gQp
0,right,0,1.8048,ST,hard,6,DoJgv77gQp
0,left,1,1.3041,ST,hard,7,DoJgv77gQp
0,left,1,0.7796,ST,hard,8,DoJgv77gQp
0,left,1,1.2676,ST,hard,9,DoJgv77gQp
1,right,1,0.6017,ST,hard,10,DoJgv77gQp
1,left,0,3.168,ST,hard,11,DoJgv77gQp
1,left,0,0.835,ST,hard,12,DoJgv77gQp
0,left,1,1.3013,ST,hard,13,DoJgv77gQp
0,left,1,1.175,ST,hard,14,DoJgv77gQp
0,left,1,0.8379,ST,hard,15,DoJgv77gQp
1,left,0,1.5016,ST,hard,16,DoJgv77gQp
1,right,1,1.7827,ST,medium,1,DoJgv77gQp
1,right,1,1.0013,ST,medium,2,DoJgv77gQp
1,left,0,0.868,ST,medium,3,DoJgv77gQp
0,left,1,0.5713,ST,medium,4,DoJgv77gQp
1,left,0,0.7378,ST,medium,5,DoJgv77gQp
1,left,0,0.7007,ST,medium,6,DoJgv77gQp
1,right,1,1.4039,ST,medium,7,DoJgv77gQp
0,left,1,0.6675,ST,medium,8,DoJgv77gQp
0,left,1,1.3949,ST,medium,9,DoJgv77gQp
1,right,1,1.2215,ST,medium,10,DoJgv77gQp
0,left,1,1.0144,ST,medium,11,DoJgv77gQp
1,right,1,0.6562,ST,medium,12,DoJgv77gQp
0,left,1,0.876,ST,medium,13,DoJgv77gQp
0,left,1,0.9504,ST,medium,14,DoJgv77gQp
0,left,1,0.7338,ST,medium,15,DoJgv77gQp
1,right,1,0.5954,ST,medium,16,DoJgv77gQp
1,right,1,1.0167,ST,easy,1,5oQkfRc0Dh
1,right,1,0.8013,ST,easy,2,5oQkfRc0Dh
1,right,1,0.9551,ST,easy,3,5oQkfRc0Dh
0,left,1,0.7852,ST,easy,4,5oQkfRc0Dh
1,right,1,0.802,ST,easy,5,5oQkfRc0Dh
1,right,1,0.7667,ST,easy,6,5oQkfRc0Dh
0,left,1,0.8994,ST,easy,7,5oQkfRc0Dh
1,right,1,1.0867,ST,easy,8,5oQkfRc0Dh
0,left,1,0.935,ST,easy,9,5oQkfRc0Dh
1,right,1,1,ST,easy,10,5oQkfRc0Dh
1,right,1,1.0403,ST,easy,11,5oQkfRc0Dh
0,left,1,0.7984,ST,easy,12,5oQkfRc0Dh
0,left,1,0.6739,ST,easy,13,5oQkfRc0Dh
1,right,1,0.8514,ST,easy,14,5oQkfRc0Dh
0,left,1,0.9677,ST,easy,15,5oQkfRc0Dh
0,left,1,0.8486,ST,easy,16,5oQkfRc0Dh
1,right,1,1.2009,ST,hard,1,5oQkfRc0Dh
0,left,1,1.4264,ST,hard,2,5oQkfRc0Dh
1,right,1,1.0589,ST,hard,3,5oQkfRc0Dh
0,left,1,0.7009,ST,hard,4,5oQkfRc0Dh
0,left,1,0.8695,ST,hard,5,5oQkfRc0Dh
1,right,1,1.3186,ST,hard,6,5oQkfRc0Dh
0,left,1,0.7885,ST,hard,7,5oQkfRc0Dh
1,left,0,1.4353,ST,hard,8,5oQkfRc0Dh
1,left,0,1.8032,ST,hard,9,5oQkfRc0Dh
0,right,0,1.4202,ST,hard,10,5oQkfRc0Dh
1,right,1,0.9181,ST,hard,11,5oQkfRc0Dh
1,right,1,1.1354,ST,hard,12,5oQkfRc0Dh
1,left,0,0.9881,ST,hard,13,5oQkfRc0Dh
1,left,0,1.6366,ST,hard,14,5oQkfRc0Dh
0,right,0,0.8224,ST,hard,15,5oQkfRc0Dh
1,left,0,0.7867,ST,hard,16,5oQkfRc0Dh
0,right,0,1.3002,ST,medium,1,5oQkfRc0Dh
0,left,1,1.0856,ST,medium,2,5oQkfRc0Dh
0,left,1,0.6894,ST,medium,3,5oQkfRc0Dh
1,right,1,1.1108,ST,medium,4,5oQkfRc0Dh
1,left,0,1.4563,ST,medium,5,5oQkfRc0Dh
0,left,1,0.9356,ST,medium,6,5oQkfRc0Dh
0,right,0,0.9681,ST,medium,7,5oQkfRc0Dh
0,left,1,1.2601,ST,medium,8,5oQkfRc0Dh
0,left,1,1.0197,ST,medium,9,5oQkfRc0Dh
0,left,1,0.8851,ST,medium,10,5oQkfRc0Dh
0,left,1,0.9345,ST,medium,11,5oQkfRc0Dh
1,left,0,0.9187,ST,medium,12,5oQkfRc0Dh
1,right,1,0.9352,ST,medium,13,5oQkfRc0Dh
0,left,1,1.0578,ST,medium,14,5oQkfRc0Dh
0,left,1,12.8304,ST,medium,15,5oQkfRc0Dh
0,left,1,1.0698,ST,medium,16,5oQkfRc0Dh
1,right,1,1.6021,ST,easy,1,yRSAaGEgHo
0,left,1,0.9896,ST,easy,2,yRSAaGEgHo
0,left,1,0.934,ST,easy,3,yRSAaGEgHo
1,right,1,1.4161,ST,easy,4,yRSAaGEgHo
0,left,1,1.0363,ST,easy,5,yRSAaGEgHo
1,right,1,0.9878,ST,easy,6,yRSAaGEgHo
1,right,1,2.5639,ST,easy,7,yRSAaGEgHo
1,right,1,1.1609,ST,easy,8,yRSAaGEgHo
0,left,1,1.7773,ST,easy,9,yRSAaGEgHo
1,right,1,1.2582,ST,easy,10,yRSAaGEgHo
1,right,1,1.4668,ST,easy,11,yRSAaGEgHo
0,left,1,1.262,ST,easy,12,yRSAaGEgHo
1,right,1,1.1618,ST,easy,13,yRSAaGEgHo
1,right,1,1.1134,ST,easy,14,yRSAaGEgHo
0,left,1,1.0984,ST,easy,15,yRSAaGEgHo
1,right,1,1.1107,ST,easy,16,yRSAaGEgHo
0,left,1,1.5445,ST,hard,1,yRSAaGEgHo
1,left,0,1.6571,ST,hard,2,yRSAaGEgHo
1,right,1,1.6499,ST,hard,3,yRSAaGEgHo
1,left,0,1.6491,ST,hard,4,yRSAaGEgHo
0,right,0,1.5553,ST,hard,5,yRSAaGEgHo
1,right,1,1.3832,ST,hard,6,yRSAaGEgHo
0,left,1,1.436,ST,hard,7,yRSAaGEgHo
0,left,1,1.4137,ST,hard,8,yRSAaGEgHo
0,left,1,1.6252,ST,hard,9,yRSAaGEgHo
1,left,0,1.244,ST,hard,10,yRSAaGEgHo
1,right,1,1.2661,ST,hard,11,yRSAaGEgHo
0,left,1,1.5784,ST,hard,12,yRSAaGEgHo
1,right,1,1.5012,ST,hard,13,yRSAaGEgHo
0,left,1,1.2763,ST,hard,14,yRSAaGEgHo
0,left,1,1.174,ST,hard,15,yRSAaGEgHo
1,left,0,1.0341,ST,hard,16,yRSAaGEgHo
1,right,1,1.3639,ST,medium,1,yRSAaGEgHo
0,left,1,1.4413,ST,medium,2,yRSAaGEgHo
0,left,1,1.2653,ST,medium,3,yRSAaGEgHo
1,left,0,1.2658,ST,medium,4,yRSAaGEgHo
1,right,1,1.3916,ST,medium,5,yRSAaGEgHo
0,left,1,1.4094,ST,medium,6,yRSAaGEgHo
0,right,0,1.6378,ST,medium,7,yRSAaGEgHo
0,left,1,1.2283,ST,medium,8,yRSAaGEgHo
1,right,1,1.7322,ST,medium,9,yRSAaGEgHo
1,left,0,1.275,ST,medium,10,yRSAaGEgHo
1,left,0,1.9172,ST,medium,11,yRSAaGEgHo
0,right,0,1.2923,ST,medium,12,yRSAaGEgHo
0,left,1,1.3841,ST,medium,13,yRSAaGEgHo
0,left,1,1.1486,ST,medium,14,yRSAaGEgHo
1,right,1,1.2264,ST,medium,15,yRSAaGEgHo
1,right,1,1.5992,ST,medium,16,yRSAaGEgHo
0,left,1,1.645,ST,easy,1,WLE3Etok97
1,right,1,1.988,ST,easy,2,WLE3Etok97
0,left,1,2.279,ST,easy,3,WLE3Etok97
0,left,1,1.469,ST,easy,4,WLE3Etok97
0,left,1,1.149,ST,easy,5,WLE3Etok97
0,left,1,1.181,ST,easy,6,WLE3Etok97
1,right,1,1.506,ST,easy,7,WLE3Etok97
0,left,1,1.294,ST,easy,8,WLE3Etok97
1,right,1,1.404,ST,easy,9,WLE3Etok97
0,left,1,1.335,ST,easy,10,WLE3Etok97
0,left,1,1.151,ST,easy,11,WLE3Etok97
1,right,1,2.02,ST,easy,12,WLE3Etok97
1,right,1,0.987,ST,easy,13,WLE3Etok97
0,left,1,0.897,ST,easy,14,WLE3Etok97
1,right,1,1.12,ST,easy,15,WLE3Etok97
1,left,0,0.917,ST,easy,16,WLE3Etok97
1,right,1,3.2,ST,hard,1,WLE3Etok97
1,left,0,1.512,ST,hard,2,WLE3Etok97
0,right,0,1.128,ST,hard,3,WLE3Etok97
0,left,1,1.334,ST,hard,4,WLE3Etok97
1,left,0,1.079,ST,hard,5,WLE3Etok97
0,right,0,0.962,ST,hard,6,WLE3Etok97
0,left,1,1.635,ST,hard,7,WLE3Etok97
1,left,0,1.872,ST,hard,8,WLE3Etok97
0,left,1,2.055,ST,hard,9,WLE3Etok97
0,right,0,4.468,ST,hard,10,WLE3Etok97
0,left,1,1.256,ST,hard,11,WLE3Etok97
1,left,0,0.8,ST,hard,12,WLE3Etok97
1,left,0,0.419,ST,hard,13,WLE3Etok97
1,left,0,1.039,ST,hard,14,WLE3Etok97
0,right,0,0.963,ST,hard,15,WLE3Etok97
1,left,0,0.705,ST,hard,16,WLE3Etok97
0,left,1,2.181,ST,medium,1,WLE3Etok97
0,left,1,1.354,ST,medium,2,WLE3Etok97
0,left,1,1.941,ST,medium,3,WLE3Etok97
1,right,1,0.752,ST,medium,4,WLE3Etok97
0,right,0,1.229,ST,medium,5,WLE3Etok97
1,left,0,1.073,ST,medium,6,WLE3Etok97
0,right,0,3.485,ST,medium,7,WLE3Etok97
0,left,1,0.845,ST,medium,8,WLE3Etok97
0,left,1,1.032,ST,medium,9,WLE3Etok97
0,left,1,2.334,ST,medium,10,WLE3Etok97
1,left,0,0.919,ST,medium,11,WLE3Etok97
1,right,1,0.937,ST,medium,12,WLE3Etok97
1,left,0,0.786,ST,medium,13,WLE3Etok97
0,left,1,0.806,ST,medium,14,WLE3Etok97
0,right,0,1.037,ST,medium,15,WLE3Etok97
1,left,0,1.563,ST,medium,16,WLE3Etok97
1,right,1,1.6946,ST,easy,1,HajArhl9Mf
1,right,1,0.9808,ST,easy,2,HajArhl9Mf
0,left,1,1.2816,ST,easy,3,HajArhl9Mf
1,right,1,1.5778,ST,easy,4,HajArhl9Mf
1,right,1,1.4476,ST,easy,5,HajArhl9Mf
0,left,1,1.2627,ST,easy,6,HajArhl9Mf
0,left,1,1.2986,ST,easy,7,HajArhl9Mf
1,right,1,1.4137,ST,easy,8,HajArhl9Mf
1,right,1,1.7445,ST,easy,9,HajArhl9Mf
1,right,1,1.8471,ST,easy,10,HajArhl9Mf
0,left,1,1.6843,ST,easy,11,HajArhl9Mf
1,right,1,1.4505,ST,easy,12,HajArhl9Mf
1,right,1,1.7641,ST,easy,13,HajArhl9Mf
0,left,1,1.3792,ST,easy,14,HajArhl9Mf
0,left,1,1.3695,ST,easy,15,HajArhl9Mf
0,left,1,1.6267,ST,easy,16,HajArhl9Mf
1,left,0,4.3186,ST,hard,1,HajArhl9Mf
1,right,1,2.0683,ST,hard,2,HajArhl9Mf
1,right,1,2.0985,ST,hard,3,HajArhl9Mf
0,left,1,1.6805,ST,hard,4,HajArhl9Mf
1,right,1,1.9521,ST,hard,5,HajArhl9Mf
0,left,1,2.6983,ST,hard,6,HajArhl9Mf
0,right,0,2.4579,ST,hard,7,HajArhl9Mf
0,right,0,2.0863,ST,hard,8,HajArhl9Mf
0,left,1,3.1375,ST,hard,9,HajArhl9Mf
0,left,1,1.8831,ST,hard,10,HajArhl9Mf
0,left,1,2.4156,ST,hard,11,HajArhl9Mf
0,left,1,2.2119,ST,hard,12,HajArhl9Mf
0,right,0,2.3175,ST,hard,13,HajArhl9Mf
1,right,1,1.8867,ST,hard,14,HajArhl9Mf
0,left,1,2.1645,ST,hard,15,HajArhl9Mf
0,left,1,5.6787,ST,hard,16,HajArhl9Mf
0,left,1,2.6619,ST,medium,1,HajArhl9Mf
0,left,1,2.3973,ST,medium,2,HajArhl9Mf
1,right,1,1.6835,ST,medium,3,HajArhl9Mf
0,left,1,2.3192,ST,medium,4,HajArhl9Mf
1,right,1,2.5306,ST,medium,5,HajArhl9Mf
1,right,1,1.4362,ST,medium,6,HajArhl9Mf
0,left,1,1.7042,ST,medium,7,HajArhl9Mf
1,right,1,1.2072,ST,medium,8,HajArhl9Mf
0,left,1,1.3382,ST,medium,9,HajArhl9Mf
0,left,1,2.3018,ST,medium,10,HajArhl9Mf
0,left,1,1.7405,ST,medium,11,HajArhl9Mf
0,left,1,1.8137,ST,medium,12,HajArhl9Mf
0,left,1,1.9634,ST,medium,13,HajArhl9Mf
0,left,1,1.5108,ST,medium,14,HajArhl9Mf
0,left,1,4.0777,ST,medium,15,HajArhl9Mf
1,right,1,1.5642,ST,medium,16,HajArhl9Mf
1,right,1,1.52,ST,easy,1,xYKzEb6U69
1,right,1,1.147,ST,easy,2,xYKzEb6U69
1,right,1,1.01,ST,easy,3,xYKzEb6U69
0,left,1,0.791,ST,easy,4,xYKzEb6U69
1,right,1,0.58,ST,easy,5,xYKzEb6U69
0,left,1,0.777,ST,easy,6,xYKzEb6U69
0,left,1,1.224,ST,easy,7,xYKzEb6U69
0,left,1,0.664,ST,easy,8,xYKzEb6U69
0,left,1,0.675,ST,easy,9,xYKzEb6U69
0,left,1,2.742,ST,easy,10,xYKzEb6U69
0,left,1,0.791,ST,easy,11,xYKzEb6U69
0,left,1,0.781,ST,easy,12,xYKzEb6U69
1,right,1,2.49,ST,easy,13,xYKzEb6U69
0,left,1,0.806,ST,easy,14,xYKzEb6U69
1,right,1,0.816,ST,easy,15,xYKzEb6U69
0,left,1,0.989,ST,easy,16,xYKzEb6U69
0,left,1,3.457,ST,hard,1,xYKzEb6U69
0,left,1,1.393,ST,hard,2,xYKzEb6U69
1,right,1,1.105,ST,hard,3,xYKzEb6U69
0,left,1,1.197,ST,hard,4,xYKzEb6U69
1,left,0,2.781,ST,hard,5,xYKzEb6U69
0,right,0,2.482,ST,hard,6,xYKzEb6U69
0,right,0,1.206,ST,hard,7,xYKzEb6U69
0,left,1,1.667,ST,hard,8,xYKzEb6U69
1,left,0,0.999,ST,hard,9,xYKzEb6U69
0,right,0,1.658,ST,hard,10,xYKzEb6U69
0,right,0,3.066,ST,hard,11,xYKzEb6U69
0,left,1,1.515,ST,hard,12,xYKzEb6U69
1,right,1,2.315,ST,hard,13,xYKzEb6U69
1,left,0,1.943,ST,hard,14,xYKzEb6U69
1,right,1,2.31,ST,hard,15,xYKzEb6U69
1,right,1,1.124,ST,hard,16,xYKzEb6U69
1,right,1,2.174,ST,medium,1,xYKzEb6U69
0,left,1,1.357,ST,medium,2,xYKzEb6U69
0,left,1,1.748,ST,medium,3,xYKzEb6U69
1,right,1,1.038,ST,medium,4,xYKzEb6U69
0,left,1,0.933,ST,medium,5,xYKzEb6U69
1,right,1,1.098,ST,medium,6,xYKzEb6U69
1,right,1,1.397,ST,medium,7,xYKzEb6U69
0,right,0,1.908,ST,medium,8,xYKzEb6U69
1,right,1,1.392,ST,medium,9,xYKzEb6U69
0,left,1,1.501,ST,medium,10,xYKzEb6U69
1,right,1,1.214,ST,medium,11,xYKzEb6U69
1,right,1,1.554,ST,medium,12,xYKzEb6U69
1,left,0,1.137,ST,medium,13,xYKzEb6U69
0,left,1,1.156,ST,medium,14,xYKzEb6U69
0,left,1,0.808,ST,medium,15,xYKzEb6U69
1,left,0,0.856,ST,medium,16,xYKzEb6U69
1,right,1,1.5844,ST,easy,1,XdaJtcIO9r
1,right,1,0.8355,ST,easy,2,XdaJtcIO9r
0,left,1,1.0633,ST,easy,3,XdaJtcIO9r
0,left,1,1.6713,ST,easy,4,XdaJtcIO9r
0,left,1,0.6778,ST,easy,5,XdaJtcIO9r
0,left,1,1.1186,ST,easy,6,XdaJtcIO9r
0,left,1,0.5843,ST,easy,7,XdaJtcIO9r
1,right,1,0.9278,ST,easy,8,XdaJtcIO9r
0,left,1,0.5943,ST,easy,9,XdaJtcIO9r
1,right,1,0.8429,ST,easy,10,XdaJtcIO9r
0,left,1,0.6676,ST,easy,11,XdaJtcIO9r
0,left,1,0.7525,ST,easy,12,XdaJtcIO9r
1,right,1,1.0099,ST,easy,13,XdaJtcIO9r
0,left,1,0.7402,ST,easy,14,XdaJtcIO9r
0,left,1,0.7819,ST,easy,15,XdaJtcIO9r
0,left,1,0.7925,ST,easy,16,XdaJtcIO9r
1,left,0,4.1223,ST,hard,1,XdaJtcIO9r
0,left,1,1.2138,ST,hard,2,XdaJtcIO9r
0,left,1,1.051,ST,hard,3,XdaJtcIO9r
1,left,0,0.9855,ST,hard,4,XdaJtcIO9r
0,left,1,0.8448,ST,hard,5,XdaJtcIO9r
1,right,1,0.9741,ST,hard,6,XdaJtcIO9r
0,left,1,0.8482,ST,hard,7,XdaJtcIO9r
1,left,0,1.6207,ST,hard,8,XdaJtcIO9r
1,right,1,1.2702,ST,hard,9,XdaJtcIO9r
0,left,1,4.3254,ST,hard,10,XdaJtcIO9r
1,right,1,0.9746,ST,hard,11,XdaJtcIO9r
1,right,1,0.8579,ST,hard,12,XdaJtcIO9r
0,right,0,0.8862,ST,hard,13,XdaJtcIO9r
1,right,1,0.7837,ST,hard,14,XdaJtcIO9r
1,left,0,2.4226,ST,hard,15,XdaJtcIO9r
1,left,0,1.2853,ST,hard,16,XdaJtcIO9r
0,left,1,1.0797,ST,medium,1,XdaJtcIO9r
1,right,1,1.1252,ST,medium,2,XdaJtcIO9r
0,left,1,1.3097,ST,medium,3,XdaJtcIO9r
1,right,1,0.7317,ST,medium,4,XdaJtcIO9r
0,left,1,1.0593,ST,medium,5,XdaJtcIO9r
0,left,1,1.0651,ST,medium,6,XdaJtcIO9r
0,left,1,1.1457,ST,medium,7,XdaJtcIO9r
0,left,1,1.0819,ST,medium,8,XdaJtcIO9r
1,left,0,1.012,ST,medium,9,XdaJtcIO9r
0,right,0,1.1198,ST,medium,10,XdaJtcIO9r
0,left,1,0.8321,ST,medium,11,XdaJtcIO9r
0,left,1,1.4989,ST,medium,12,XdaJtcIO9r
0,left,1,1.9397,ST,medium,13,XdaJtcIO9r
1,right,1,0.7682,ST,medium,14,XdaJtcIO9r
0,left,1,1.7029,ST,medium,15,XdaJtcIO9r
1,right,1,1.66,ST,medium,16,XdaJtcIO9r
0,left,1,1.8349,ST,easy,1,JpDUHBwJT1
0,left,1,0.8333,ST,easy,2,JpDUHBwJT1
1,right,1,1.1995,ST,easy,3,JpDUHBwJT1
1,right,1,1.1002,ST,easy,4,JpDUHBwJT1
1,right,1,1.5917,ST,easy,5,JpDUHBwJT1
0,right,0,1.0664,ST,easy,6,JpDUHBwJT1
1,right,1,1.2145,ST,easy,7,JpDUHBwJT1
1,right,1,1.2413,ST,easy,8,JpDUHBwJT1
1,right,1,1.4499,ST,easy,9,JpDUHBwJT1
1,right,1,1.2118,ST,easy,10,JpDUHBwJT1
1,right,1,1.4544,ST,easy,11,JpDUHBwJT1
1,right,1,1.3153,ST,easy,12,JpDUHBwJT1
1,right,1,1.2153,ST,easy,13,JpDUHBwJT1
0,left,1,1.4001,ST,easy,14,JpDUHBwJT1
0,left,1,1.1842,ST,easy,15,JpDUHBwJT1
1,right,1,1.4258,ST,easy,16,JpDUHBwJT1
1,left,0,1.4447,ST,hard,1,JpDUHBwJT1
0,left,1,1.5333,ST,hard,2,JpDUHBwJT1
0,right,0,1.5706,ST,hard,3,JpDUHBwJT1
0,left,1,1.3137,ST,hard,4,JpDUHBwJT1
0,left,1,1.3405,ST,hard,5,JpDUHBwJT1
0,left,1,2.3551,ST,hard,6,JpDUHBwJT1
1,left,0,1.6892,ST,hard,7,JpDUHBwJT1
0,left,1,3.1994,ST,hard,8,JpDUHBwJT1
0,left,1,3.6229,ST,hard,9,JpDUHBwJT1
0,left,1,2.7732,ST,hard,10,JpDUHBwJT1
0,right,0,2.3347,ST,hard,11,JpDUHBwJT1
1,right,1,1.7378,ST,hard,12,JpDUHBwJT1
1,left,0,1.4065,ST,hard,13,JpDUHBwJT1
1,left,0,1.2255,ST,hard,14,JpDUHBwJT1
0,left,1,1.291,ST,hard,15,JpDUHBwJT1
1,right,1,2.0696,ST,hard,16,JpDUHBwJT1
0,left,1,2.8783,ST,medium,1,JpDUHBwJT1
1,right,1,2.232,ST,medium,2,JpDUHBwJT1
1,right,1,1.791,ST,medium,3,JpDUHBwJT1
1,right,1,1.3581,ST,medium,4,JpDUHBwJT1
1,right,1,3.2534,ST,medium,5,JpDUHBwJT1
1,right,1,1.5427,ST,medium,6,JpDUHBwJT1
1,right,1,1.5418,ST,medium,7,JpDUHBwJT1
0,left,1,2.7375,ST,medium,8,JpDUHBwJT1
0,left,1,1.5816,ST,medium,9,JpDUHBwJT1
1,right,1,1.3169,ST,medium,10,JpDUHBwJT1
0,left,1,1.4475,ST,medium,11,JpDUHBwJT1
0,left,1,3.6382,ST,medium,12,JpDUHBwJT1
1,left,0,2.4149,ST,medium,13,JpDUHBwJT1
0,left,1,1.5511,ST,medium,14,JpDUHBwJT1
1,left,0,3.7128,ST,medium,15,JpDUHBwJT1
1,right,1,2.542,ST,medium,16,JpDUHBwJT1
1,right,1,0.9949,ST,easy,1,z8uZORh5Lg
0,left,1,0.9516,ST,easy,2,z8uZORh5Lg
1,right,1,0.9834,ST,easy,3,z8uZORh5Lg
0,left,1,0.9043,ST,easy,4,z8uZORh5Lg
0,left,1,1.2347,ST,easy,5,z8uZORh5Lg
0,left,1,1.1473,ST,easy,6,z8uZORh5Lg
0,left,1,1.0907,ST,easy,7,z8uZORh5Lg
1,left,0,1.3789,ST,easy,8,z8uZORh5Lg
0,left,1,0.7325,ST,easy,9,z8uZORh5Lg
0,left,1,0.7869,ST,easy,10,z8uZORh5Lg
0,left,1,0.7026,ST,easy,11,z8uZORh5Lg
1,right,1,0.8508,ST,easy,12,z8uZORh5Lg
1,right,1,0.7873,ST,easy,13,z8uZORh5Lg
1,right,1,0.9731,ST,easy,14,z8uZORh5Lg
0,left,1,0.8727,ST,easy,15,z8uZORh5Lg
1,right,1,1.1967,ST,easy,16,z8uZORh5Lg
1,left,0,1.8757,ST,hard,1,z8uZORh5Lg
0,left,1,1.2807,ST,hard,2,z8uZORh5Lg
0,left,1,1.0731,ST,hard,3,z8uZORh5Lg
0,left,1,0.955,ST,hard,4,z8uZORh5Lg
1,left,0,1.2544,ST,hard,5,z8uZORh5Lg
1,right,1,2.0979,ST,hard,6,z8uZORh5Lg
1,left,0,1.2392,ST,hard,7,z8uZORh5Lg
1,right,1,0.838,ST,hard,8,z8uZORh5Lg
1,left,0,1.0942,ST,hard,9,z8uZORh5Lg
0,left,1,0.3383,ST,hard,10,z8uZORh5Lg
0,left,1,0.8961,ST,hard,11,z8uZORh5Lg
0,left,1,0.9162,ST,hard,12,z8uZORh5Lg
1,left,0,1.1113,ST,hard,13,z8uZORh5Lg
0,left,1,2.7615,ST,hard,14,z8uZORh5Lg
1,right,1,1.0792,ST,hard,15,z8uZORh5Lg
0,left,1,2.4016,ST,hard,16,z8uZORh5Lg
1,right,1,0.9728,ST,medium,1,z8uZORh5Lg
0,right,0,0.8655,ST,medium,2,z8uZORh5Lg
0,left,1,0.7535,ST,medium,3,z8uZORh5Lg
1,right,1,2.1812,ST,medium,4,z8uZORh5Lg
1,left,0,0.8198,ST,medium,5,z8uZORh5Lg
0,left,1,0.8684,ST,medium,6,z8uZORh5Lg
1,left,0,3.2129,ST,medium,7,z8uZORh5Lg
0,left,1,1.4285,ST,medium,8,z8uZORh5Lg
1,right,1,0.8636,ST,medium,9,z8uZORh5Lg
1,right,1,0.7662,ST,medium,10,z8uZORh5Lg
0,right,0,0.9628,ST,medium,11,z8uZORh5Lg
1,right,1,0.849,ST,medium,12,z8uZORh5Lg
1,left,0,1.254,ST,medium,13,z8uZORh5Lg
0,left,1,1.082,ST,medium,14,z8uZORh5Lg
1,right,1,0.9814,ST,medium,15,z8uZORh5Lg
1,right,1,0.7554,ST,medium,16,z8uZORh5Lg
0,left,1,1.3384,ST,easy,1,yIjm6EG67z
1,right,1,1.0424,ST,easy,2,yIjm6EG67z
1,right,1,1.6163,ST,easy,3,yIjm6EG67z
1,right,1,1.6816,ST,easy,4,yIjm6EG67z
1,right,1,1.3994,ST,easy,5,yIjm6EG67z
0,left,1,1.7022,ST,easy,6,yIjm6EG67z
1,right,1,1.3997,ST,easy,7,yIjm6EG67z
0,left,1,1.6161,ST,easy,8,yIjm6EG67z
0,left,1,1.3513,ST,easy,9,yIjm6EG67z
0,left,1,0.8826,ST,easy,10,yIjm6EG67z
1,right,1,1.3154,ST,easy,11,yIjm6EG67z
1,right,1,1.6327,ST,easy,12,yIjm6EG67z
1,right,1,1.337,ST,easy,13,yIjm6EG67z
0,left,1,0.9581,ST,easy,14,yIjm6EG67z
0,left,1,0.7155,ST,easy,15,yIjm6EG67z
0,left,1,1.2691,ST,easy,16,yIjm6EG67z
1,left,0,1.5561,ST,hard,1,yIjm6EG67z
0,left,1,1.358,ST,hard,2,yIjm6EG67z
0,left,1,1.2747,ST,hard,3,yIjm6EG67z
1,right,1,1.3765,ST,hard,4,yIjm6EG67z
0,left,1,1.0042,ST,hard,5,yIjm6EG67z
0,left,1,1.3239,ST,hard,6,yIjm6EG67z
1,left,0,1.2362,ST,hard,7,yIjm6EG67z
0,left,1,1.2739,ST,hard,8,yIjm6EG67z
0,left,1,1.3153,ST,hard,9,yIjm6EG67z
0,left,1,1.6692,ST,hard,10,yIjm6EG67z
0,left,1,1.2587,ST,hard,11,yIjm6EG67z
0,left,1,1.3529,ST,hard,12,yIjm6EG67z
1,right,1,1.2929,ST,hard,13,yIjm6EG67z
1,right,1,1.6977,ST,hard,14,yIjm6EG67z
0,left,1,1.1869,ST,hard,15,yIjm6EG67z
1,right,1,1.2971,ST,hard,16,yIjm6EG67z
1,right,1,2.1375,ST,medium,1,yIjm6EG67z
1,right,1,1.8807,ST,medium,2,yIjm6EG67z
0,left,1,1.5209,ST,medium,3,yIjm6EG67z
1,left,0,1.3936,ST,medium,4,yIjm6EG67z
1,left,0,4.5049,ST,medium,5,yIjm6EG67z
0,left,1,1.971,ST,medium,6,yIjm6EG67z
0,left,1,1.5756,ST,medium,7,yIjm6EG67z
1,right,1,1.5749,ST,medium,8,yIjm6EG67z
0,left,1,1.5318,ST,medium,9,yIjm6EG67z
1,left,0,3.2658,ST,medium,10,yIjm6EG67z
0,left,1,1.4648,ST,medium,11,yIjm6EG67z
1,right,1,1.6013,ST,medium,12,yIjm6EG67z
0,left,1,1.4475,ST,medium,13,yIjm6EG67z
1,right,1,1.5139,ST,medium,14,yIjm6EG67z
1,right,1,1.6908,ST,medium,15,yIjm6EG67z
1,right,1,1.6322,ST,medium,16,yIjm6EG67z
1,right,1,0.8751,ST,easy,1,alNlXuBH5D
1,right,1,0.9103,ST,easy,2,alNlXuBH5D
1,right,1,0.851,ST,easy,3,alNlXuBH5D
1,right,1,1.0018,ST,easy,4,alNlXuBH5D
0,left,1,1.2837,ST,easy,5,alNlXuBH5D
1,right,1,0.7674,ST,easy,6,alNlXuBH5D
0,left,1,0.818,ST,easy,7,alNlXuBH5D
0,left,1,0.6379,ST,easy,8,alNlXuBH5D
0,left,1,0.7342,ST,easy,9,alNlXuBH5D
0,left,1,1.8884,ST,easy,10,alNlXuBH5D
1,right,1,0.6204,ST,easy,11,alNlXuBH5D
1,right,1,0.9025,ST,easy,12,alNlXuBH5D
0,left,1,0.7033,ST,easy,13,alNlXuBH5D
0,left,1,0.7985,ST,easy,14,alNlXuBH5D
1,right,1,1.6027,ST,easy,15,alNlXuBH5D
1,right,1,0.7676,ST,easy,16,alNlXuBH5D
1,left,0,1.6159,ST,hard,1,alNlXuBH5D
1,right,1,0.7981,ST,hard,2,alNlXuBH5D
0,left,1,2.9661,ST,hard,3,alNlXuBH5D
0,left,1,1.1176,ST,hard,4,alNlXuBH5D
1,right,1,1.2404,ST,hard,5,alNlXuBH5D
0,left,1,1.2406,ST,hard,6,alNlXuBH5D
0,left,1,1.0519,ST,hard,7,alNlXuBH5D
0,left,1,1.8724,ST,hard,8,alNlXuBH5D
1,right,1,0.7189,ST,hard,9,alNlXuBH5D
0,left,1,0.7992,ST,hard,10,alNlXuBH5D
1,left,0,2.1876,ST,hard,11,alNlXuBH5D
1,right,1,0.972,ST,hard,12,alNlXuBH5D
0,left,1,2.072,ST,hard,13,alNlXuBH5D
1,right,1,1.0747,ST,hard,14,alNlXuBH5D
0,right,0,0.915,ST,hard,15,alNlXuBH5D
0,left,1,2.4648,ST,hard,16,alNlXuBH5D
0,left,1,1.1501,ST,medium,1,alNlXuBH5D
0,right,0,0.9263,ST,medium,2,alNlXuBH5D
0,left,1,2.0177,ST,medium,3,alNlXuBH5D
1,right,1,1.1896,ST,medium,4,alNlXuBH5D
0,left,1,1.2503,ST,medium,5,alNlXuBH5D
0,left,1,2.7851,ST,medium,6,alNlXuBH5D
1,right,1,1.0249,ST,medium,7,alNlXuBH5D
1,right,1,0.9006,ST,medium,8,alNlXuBH5D
0,left,1,1.1576,ST,medium,9,alNlXuBH5D
0,left,1,1.3014,ST,medium,10,alNlXuBH5D
1,right,1,1.0224,ST,medium,11,alNlXuBH5D
1,right,1,0.9342,ST,medium,12,alNlXuBH5D
0,left,1,1.1511,ST,medium,13,alNlXuBH5D
1,right,1,0.9343,ST,medium,14,alNlXuBH5D
1,right,1,2.4175,ST,medium,15,alNlXuBH5D
1,right,1,1.6841,ST,medium,16,alNlXuBH5D
0,left,1,1.261,ST,easy,1,QLrSXxmCJy
0,left,1,1.0687,ST,easy,2,QLrSXxmCJy
0,left,1,1.1847,ST,easy,3,QLrSXxmCJy
1,right,1,0.9523,ST,easy,4,QLrSXxmCJy
1,left,0,0.9053,ST,easy,5,QLrSXxmCJy
0,left,1,1.1512,ST,easy,6,QLrSXxmCJy
1,right,1,1.0658,ST,easy,7,QLrSXxmCJy
0,left,1,1.0362,ST,easy,8,QLrSXxmCJy
1,right,1,2.8334,ST,easy,9,QLrSXxmCJy
1,right,1,1.3829,ST,easy,10,QLrSXxmCJy
0,left,1,1.4336,ST,easy,11,QLrSXxmCJy
0,left,1,2.5204,ST,easy,12,QLrSXxmCJy
0,left,1,1.1032,ST,easy,13,QLrSXxmCJy
0,right,0,2.1222,ST,easy,14,QLrSXxmCJy
0,left,1,1.8166,ST,easy,15,QLrSXxmCJy
1,right,1,1.4867,ST,easy,16,QLrSXxmCJy
1,left,0,2.1777,ST,hard,1,QLrSXxmCJy
0,left,1,1.1862,ST,hard,2,QLrSXxmCJy
1,right,1,1.7556,ST,hard,3,QLrSXxmCJy
0,left,1,1.1371,ST,hard,4,QLrSXxmCJy
0,left,1,1.0502,ST,hard,5,QLrSXxmCJy
0,left,1,1.5503,ST,hard,6,QLrSXxmCJy
0,left,1,1.0974,ST,hard,7,QLrSXxmCJy
1,right,1,1.378,ST,hard,8,QLrSXxmCJy
0,left,1,1.1045,ST,hard,9,QLrSXxmCJy
1,left,0,0.9197,ST,hard,10,QLrSXxmCJy
1,right,1,1.1317,ST,hard,11,QLrSXxmCJy
0,left,1,1.0218,ST,hard,12,QLrSXxmCJy
0,left,1,0.8546,ST,hard,13,QLrSXxmCJy
0,left,1,0.7683,ST,hard,14,QLrSXxmCJy
0,left,1,1.2909,ST,hard,15,QLrSXxmCJy
1,right,1,1.0351,ST,hard,16,QLrSXxmCJy
1,right,1,1.4709,ST,medium,1,QLrSXxmCJy
0,left,1,1.4348,ST,medium,2,QLrSXxmCJy
1,right,1,1.1854,ST,medium,3,QLrSXxmCJy
0,left,1,1.309,ST,medium,4,QLrSXxmCJy
0,right,0,1.0892,ST,medium,5,QLrSXxmCJy
0,right,0,1.0633,ST,medium,6,QLrSXxmCJy
0,left,1,1.0561,ST,medium,7,QLrSXxmCJy
0,left,1,1.0844,ST,medium,8,QLrSXxmCJy
1,right,1,0.8226,ST,medium,9,QLrSXxmCJy
1,left,0,0.8311,ST,medium,10,QLrSXxmCJy
1,right,1,0.9145,ST,medium,11,QLrSXxmCJy
0,left,1,0.6826,ST,medium,12,QLrSXxmCJy
0,left,1,1.4849,ST,medium,13,QLrSXxmCJy
1,right,1,0.9296,ST,medium,14,QLrSXxmCJy
1,left,0,1.2137,ST,medium,15,QLrSXxmCJy
1,right,1,0.8968,ST,medium,16,QLrSXxmCJy
0,left,1,1.005900001,ST,easy,1,8BtJMmB1PT
0,left,1,0.9183,ST,easy,2,8BtJMmB1PT
1,right,1,0.9015,ST,easy,3,8BtJMmB1PT
1,right,1,1.1015,ST,easy,4,8BtJMmB1PT
0,left,1,0.868,ST,easy,5,8BtJMmB1PT
1,right,1,0.9928,ST,easy,6,8BtJMmB1PT
0,left,1,0.807,ST,easy,7,8BtJMmB1PT
1,right,1,0.8012,ST,easy,8,8BtJMmB1PT
1,right,1,1.035,ST,easy,9,8BtJMmB1PT
1,right,1,0.9209,ST,easy,10,8BtJMmB1PT
0,left,1,0.8868,ST,easy,11,8BtJMmB1PT
0,left,1,1.0013,ST,easy,12,8BtJMmB1PT
1,right,1,0.9377,ST,easy,13,8BtJMmB1PT
0,left,1,0.8602,ST,easy,14,8BtJMmB1PT
0,left,1,0.7345,ST,easy,15,8BtJMmB1PT
0,left,1,0.9012,ST,easy,16,8BtJMmB1PT
1,right,1,4.4664,ST,hard,1,8BtJMmB1PT
0,left,1,1.2012,ST,hard,2,8BtJMmB1PT
0,right,0,1.251299999,ST,hard,3,8BtJMmB1PT
0,right,0,0.91809999900000006,ST,hard,4,8BtJMmB1PT
1,left,0,1.200900001,ST,hard,5,8BtJMmB1PT
0,left,1,1.2355,ST,hard,6,8BtJMmB1PT
0,right,0,0.8868,ST,hard,7,8BtJMmB1PT
1,left,0,1.2178,ST,hard,8,8BtJMmB1PT
0,left,1,1.1515,ST,hard,9,8BtJMmB1PT
1,left,0,1.2869,ST,hard,10,8BtJMmB1PT
0,left,1,0.984799999,ST,hard,11,8BtJMmB1PT
0,left,1,1.234599999,ST,hard,12,8BtJMmB1PT
1,right,1,0.8844,ST,hard,13,8BtJMmB1PT
0,left,1,0.9543,ST,hard,14,8BtJMmB1PT
0,left,1,1.3345,ST,hard,15,8BtJMmB1PT
0,left,1,1.401200001,ST,hard,16,8BtJMmB1PT
1,right,1,1.0402,ST,medium,1,8BtJMmB1PT
0,right,0,1.491599999,ST,medium,2,8BtJMmB1PT
0,left,1,1.6679,ST,medium,3,8BtJMmB1PT
0,left,1,1.9349,ST,medium,4,8BtJMmB1PT
1,right,1,0.9511,ST,medium,5,8BtJMmB1PT
0,right,0,1.968,ST,medium,6,8BtJMmB1PT
0,left,1,1.1185,ST,medium,7,8BtJMmB1PT
0,left,1,0.8183,ST,medium,8,8BtJMmB1PT
0,left,1,0.9546,ST,medium,9,8BtJMmB1PT
1,right,1,0.9512,ST,medium,10,8BtJMmB1PT
1,right,1,1.554200001,ST,medium,11,8BtJMmB1PT
0,left,1,0.868,ST,medium,12,8BtJMmB1PT
0,left,1,1.034900001,ST,medium,13,8BtJMmB1PT
1,left,0,0.8517,ST,medium,14,8BtJMmB1PT
0,right,0,1.400799999,ST,medium,15,8BtJMmB1PT
1,right,1,1.3161,ST,medium,16,8BtJMmB1PT
0,left,1,1.287,ST,easy,1,8xVAczfPKp
1,right,1,1.3474,ST,easy,2,8xVAczfPKp
0,left,1,1.7153,ST,easy,3,8xVAczfPKp
0,left,1,0.7891,ST,easy,4,8xVAczfPKp
0,left,1,1.2694,ST,easy,5,8xVAczfPKp
0,left,1,0.6976,ST,easy,6,8xVAczfPKp
0,left,1,0.6165,ST,easy,7,8xVAczfPKp
1,right,1,1.2862,ST,easy,8,8xVAczfPKp
0,left,1,0.6569,ST,easy,9,8xVAczfPKp
1,right,1,0.9503,ST,easy,10,8xVAczfPKp
0,left,1,0.6571,ST,easy,11,8xVAczfPKp
1,right,1,0.7661,ST,easy,12,8xVAczfPKp
1,right,1,1.7543,ST,easy,13,8xVAczfPKp
0,left,1,0.5525,ST,easy,14,8xVAczfPKp
1,left,0,1.3576,ST,easy,15,8xVAczfPKp
0,left,1,0.9147,ST,easy,16,8xVAczfPKp
0,left,1,1.7595,ST,hard,1,8xVAczfPKp
0,left,1,1.3229,ST,hard,2,8xVAczfPKp
0,left,1,1.0359,ST,hard,3,8xVAczfPKp
0,left,1,0.8916,ST,hard,4,8xVAczfPKp
1,right,1,0.8055,ST,hard,5,8xVAczfPKp
1,right,1,0.8314,ST,hard,6,8xVAczfPKp
0,right,0,1.006,ST,hard,7,8xVAczfPKp
1,left,0,0.7983,ST,hard,8,8xVAczfPKp
1,right,1,1.1585,ST,hard,9,8xVAczfPKp
0,left,1,0.8847,ST,hard,10,8xVAczfPKp
1,left,0,0.8389,ST,hard,11,8xVAczfPKp
0,left,1,1.8032,ST,hard,12,8xVAczfPKp
0,left,1,0.6521,ST,hard,13,8xVAczfPKp
0,left,1,0.8242,ST,hard,14,8xVAczfPKp
1,right,1,0.6946,ST,hard,15,8xVAczfPKp
0,left,1,0.9351,ST,hard,16,8xVAczfPKp
1,right,1,0.8198,ST,medium,1,8xVAczfPKp
0,left,1,0.7185,ST,medium,2,8xVAczfPKp
1,right,1,1.0654,ST,medium,3,8xVAczfPKp
0,right,0,1.164,ST,medium,4,8xVAczfPKp
0,left,1,0.6846,ST,medium,5,8xVAczfPKp
1,right,1,0.8108,ST,medium,6,8xVAczfPKp
1,left,0,0.7047,ST,medium,7,8xVAczfPKp
1,right,1,0.5148,ST,medium,8,8xVAczfPKp
0,right,0,0.7784,ST,medium,9,8xVAczfPKp
0,left,1,0.8152,ST,medium,10,8xVAczfPKp
1,right,1,0.4408,ST,medium,11,8xVAczfPKp
0,right,0,1.4965,ST,medium,12,8xVAczfPKp
1,right,1,1.6328,ST,medium,13,8xVAczfPKp
0,left,1,0.9099,ST,medium,14,8xVAczfPKp
1,left,0,0.621,ST,medium,15,8xVAczfPKp
0,right,0,0.9498,ST,medium,16,8xVAczfPKp
1,right,1,3.2117,ST,easy,1,P7WDUMyOEc
0,left,1,1.7098,ST,easy,2,P7WDUMyOEc
1,right,1,1.5958,ST,easy,3,P7WDUMyOEc
0,left,1,1.2694,ST,easy,4,P7WDUMyOEc
0,left,1,1.2927,ST,easy,5,P7WDUMyOEc
0,left,1,1.3549,ST,easy,6,P7WDUMyOEc
0,left,1,1.1263,ST,easy,7,P7WDUMyOEc
1,right,1,2.1255,ST,easy,8,P7WDUMyOEc
0,left,1,1.4127,ST,easy,9,P7WDUMyOEc
1,right,1,1.4447,ST,easy,10,P7WDUMyOEc
1,right,1,1.944,ST,easy,11,P7WDUMyOEc
1,right,1,1.4119,ST,easy,12,P7WDUMyOEc
0,left,1,1.5465,ST,easy,13,P7WDUMyOEc
0,left,1,1.2153,ST,easy,14,P7WDUMyOEc
1,right,1,1.3308,ST,easy,15,P7WDUMyOEc
1,right,1,1.1537,ST,easy,16,P7WDUMyOEc
0,left,1,7.357,ST,hard,1,P7WDUMyOEc
0,right,0,2.3537,ST,hard,2,P7WDUMyOEc
0,right,0,2.3077,ST,hard,3,P7WDUMyOEc
1,right,1,1.7105,ST,hard,4,P7WDUMyOEc
0,left,1,1.8113,ST,hard,5,P7WDUMyOEc
0,left,1,1.5094,ST,hard,6,P7WDUMyOEc
0,left,1,2.3923,ST,hard,7,P7WDUMyOEc
0,left,1,2.0545,ST,hard,8,P7WDUMyOEc
1,right,1,2.1296,ST,hard,9,P7WDUMyOEc
1,right,1,1.4166,ST,hard,10,P7WDUMyOEc
1,left,0,3.306,ST,hard,11,P7WDUMyOEc
0,left,1,1.3953,ST,hard,12,P7WDUMyOEc
0,left,1,1.6966,ST,hard,13,P7WDUMyOEc
1,right,1,2.4652,ST,hard,14,P7WDUMyOEc
1,right,1,2.1736,ST,hard,15,P7WDUMyOEc
1,left,0,1.2915,ST,hard,16,P7WDUMyOEc
1,right,1,1.9221,ST,medium,1,P7WDUMyOEc
0,left,1,2.1102,ST,medium,2,P7WDUMyOEc
1,right,1,1.4341,ST,medium,3,P7WDUMyOEc
1,right,1,1.1334,ST,medium,4,P7WDUMyOEc
1,left,0,1.6796,ST,medium,5,P7WDUMyOEc
0,right,0,2.0125,ST,medium,6,P7WDUMyOEc
1,right,1,1.3148,ST,medium,7,P7WDUMyOEc
0,left,1,1.2481,ST,medium,8,P7WDUMyOEc
0,left,1,1.2303,ST,medium,9,P7WDUMyOEc
1,right,1,3.2432,ST,medium,10,P7WDUMyOEc
0,left,1,1.1804,ST,medium,11,P7WDUMyOEc
0,left,1,1.6153,ST,medium,12,P7WDUMyOEc
1,right,1,1.6793,ST,medium,13,P7WDUMyOEc
1,right,1,3.5591,ST,medium,14,P7WDUMyOEc
1,right,1,1.6639,ST,medium,15,P7WDUMyOEc
1,right,1,1.9931,ST,medium,16,P7WDUMyOEc
1,right,1,1.107,ST,easy,1,cHjpJUhddy
0,left,1,1.268,ST,easy,2,cHjpJUhddy
0,left,1,1.083,ST,easy,3,cHjpJUhddy
0,left,1,0.865,ST,easy,4,cHjpJUhddy
1,right,1,1.323,ST,easy,5,cHjpJUhddy
1,right,1,0.938,ST,easy,6,cHjpJUhddy
0,left,1,0.912,ST,easy,7,cHjpJUhddy
0,left,1,0.861,ST,easy,8,cHjpJUhddy
0,left,1,0.774,ST,easy,9,cHjpJUhddy
0,left,1,1.73,ST,easy,10,cHjpJUhddy
0,left,1,1.556,ST,easy,11,cHjpJUhddy
1,right,1,1.149,ST,easy,12,cHjpJUhddy
1,right,1,0.951,ST,easy,13,cHjpJUhddy
1,right,1,0.746,ST,easy,14,cHjpJUhddy
0,left,1,0.927,ST,easy,15,cHjpJUhddy
1,right,1,1.22,ST,easy,16,cHjpJUhddy
0,left,1,1.24,ST,hard,1,cHjpJUhddy
1,right,1,2.085,ST,hard,2,cHjpJUhddy
1,right,1,1.013,ST,hard,3,cHjpJUhddy
0,left,1,0.914,ST,hard,4,cHjpJUhddy
1,right,1,1.698,ST,hard,5,cHjpJUhddy
1,left,0,1.095,ST,hard,6,cHjpJUhddy
1,left,0,1.472,ST,hard,7,cHjpJUhddy
1,left,0,1.368,ST,hard,8,cHjpJUhddy
0,right,0,3.227,ST,hard,9,cHjpJUhddy
0,right,0,1.687,ST,hard,10,cHjpJUhddy
1,right,1,1.303,ST,hard,11,cHjpJUhddy
0,left,1,0.959,ST,hard,12,cHjpJUhddy
0,left,1,1.098,ST,hard,13,cHjpJUhddy
0,left,1,1.039,ST,hard,14,cHjpJUhddy
1,right,1,0.891,ST,hard,15,cHjpJUhddy
1,right,1,0.859,ST,hard,16,cHjpJUhddy
1,right,1,2.402,ST,medium,1,cHjpJUhddy
0,left,1,0.934,ST,medium,2,cHjpJUhddy
1,right,1,1.058,ST,medium,3,cHjpJUhddy
0,left,1,1.051,ST,medium,4,cHjpJUhddy
0,left,1,1.775,ST,medium,5,cHjpJUhddy
0,left,1,0.809,ST,medium,6,cHjpJUhddy
0,left,1,1.301,ST,medium,7,cHjpJUhddy
1,right,1,0.811,ST,medium,8,cHjpJUhddy
0,left,1,1.098,ST,medium,9,cHjpJUhddy
0,right,0,1.197,ST,medium,10,cHjpJUhddy
0,left,1,0.831,ST,medium,11,cHjpJUhddy
1,right,1,1.302,ST,medium,12,cHjpJUhddy
0,left,1,1.39,ST,medium,13,cHjpJUhddy
0,right,0,1.611,ST,medium,14,cHjpJUhddy
1,right,1,1.024,ST,medium,15,cHjpJUhddy
1,right,1,0.83,ST,medium,16,cHjpJUhddy
0,left,1,1.0582,ST,easy,1,qI9h62z2Ku
1,right,1,0.976400001,ST,easy,2,qI9h62z2Ku
0,left,1,0.76,ST,easy,3,qI9h62z2Ku
0,left,1,1.6959,ST,easy,4,qI9h62z2Ku
0,left,1,0.8233,ST,easy,5,qI9h62z2Ku
1,right,1,1.317,ST,easy,6,qI9h62z2Ku
1,right,1,0.8168,ST,easy,7,qI9h62z2Ku
1,right,1,0.783599999,ST,easy,8,qI9h62z2Ku
1,right,1,0.941799999,ST,easy,9,qI9h62z2Ku
1,right,1,0.820799999,ST,easy,10,qI9h62z2Ku
1,right,1,5.2833,ST,easy,11,qI9h62z2Ku
0,left,1,0.560799999,ST,easy,12,qI9h62z2Ku
0,left,1,1.183599999,ST,easy,13,qI9h62z2Ku
0,left,1,0.879900001,ST,easy,14,qI9h62z2Ku
0,left,1,0.5777,ST,easy,15,qI9h62z2Ku
1,right,1,0.7307,ST,easy,16,qI9h62z2Ku
0,left,1,0.9475,ST,hard,1,qI9h62z2Ku
0,left,1,1.6708,ST,hard,2,qI9h62z2Ku
0,right,0,3.135,ST,hard,3,qI9h62z2Ku
0,left,1,1.439599999,ST,hard,4,qI9h62z2Ku
1,right,1,1.4487,ST,hard,5,qI9h62z2Ku
1,right,1,1.1132,ST,hard,6,qI9h62z2Ku
0,right,0,3.8426,ST,hard,7,qI9h62z2Ku
1,right,1,1.127,ST,hard,8,qI9h62z2Ku
1,right,1,1.262,ST,hard,9,qI9h62z2Ku
1,left,0,0.579599999,ST,hard,10,qI9h62z2Ku
0,left,1,0.8319,ST,hard,11,qI9h62z2Ku
0,left,1,0.928200001,ST,hard,12,qI9h62z2Ku
0,left,1,0.963,ST,hard,13,qI9h62z2Ku
0,left,1,1.6502,ST,hard,14,qI9h62z2Ku
1,right,1,0.9984,ST,hard,15,qI9h62z2Ku
0,left,1,1.093099999,ST,hard,16,qI9h62z2Ku
1,right,1,1.5182,ST,medium,1,qI9h62z2Ku
0,left,1,0.8834,ST,medium,2,qI9h62z2Ku
1,right,1,0.8934,ST,medium,3,qI9h62z2Ku
0,left,1,2.0258,ST,medium,4,qI9h62z2Ku
0,left,1,1.2562,ST,medium,5,qI9h62z2Ku
1,right,1,3.8532,ST,medium,6,qI9h62z2Ku
1,right,1,0.9957,ST,medium,7,qI9h62z2Ku
1,right,1,1.600400001,ST,medium,8,qI9h62z2Ku
0,left,1,2.6827,ST,medium,9,qI9h62z2Ku
1,right,1,0.7958,ST,medium,10,qI9h62z2Ku
1,right,1,1.0002,ST,medium,11,qI9h62z2Ku
0,left,1,1.0737,ST,medium,12,qI9h62z2Ku
1,right,1,0.7557,ST,medium,13,qI9h62z2Ku
1,right,1,0.833599999,ST,medium,14,qI9h62z2Ku
1,right,1,4.9663,ST,medium,15,qI9h62z2Ku
1,right,1,0.7003,ST,medium,16,qI9h62z2Ku
1,right,1,1.4177,ST,easy,1,OSi3LnpELr
0,left,1,1.2129,ST,easy,2,OSi3LnpELr
1,right,1,1.2462,ST,easy,3,OSi3LnpELr
0,left,1,1.0676,ST,easy,4,OSi3LnpELr
0,left,1,1.2862,ST,easy,5,OSi3LnpELr
1,right,1,0.8888,ST,easy,6,OSi3LnpELr
0,left,1,1.0428,ST,easy,7,OSi3LnpELr
1,right,1,1.0837,ST,easy,8,OSi3LnpELr
0,left,1,0.9412,ST,easy,9,OSi3LnpELr
1,right,1,0.8627,ST,easy,10,OSi3LnpELr
0,left,1,0.9692,ST,easy,11,OSi3LnpELr
1,right,1,0.9066,ST,easy,12,OSi3LnpELr
0,left,1,0.8082,ST,easy,13,OSi3LnpELr
0,left,1,0.8322,ST,easy,14,OSi3LnpELr
0,left,1,0.7958,ST,easy,15,OSi3LnpELr
1,right,1,1.168,ST,easy,16,OSi3LnpELr
1,right,1,3.6217,ST,hard,1,OSi3LnpELr
1,left,0,1.2587,ST,hard,2,OSi3LnpELr
0,left,1,0.9671,ST,hard,3,OSi3LnpELr
1,right,1,1.6492,ST,hard,4,OSi3LnpELr
0,left,1,1.3136,ST,hard,5,OSi3LnpELr
1,left,0,1.2805,ST,hard,6,OSi3LnpELr
0,left,1,0.9144,ST,hard,7,OSi3LnpELr
0,left,1,1.6556,ST,hard,8,OSi3LnpELr
0,left,1,1.0585,ST,hard,9,OSi3LnpELr
1,right,1,0.7562,ST,hard,10,OSi3LnpELr
1,left,0,1.263,ST,hard,11,OSi3LnpELr
0,right,0,1.0488,ST,hard,12,OSi3LnpELr
1,right,1,1.0215,ST,hard,13,OSi3LnpELr
0,right,0,3.3461,ST,hard,14,OSi3LnpELr
0,left,1,1.1333,ST,hard,15,OSi3LnpELr
1,left,0,1.0532,ST,hard,16,OSi3LnpELr
0,left,1,1.937,ST,medium,1,OSi3LnpELr
0,left,1,1.0174,ST,medium,2,OSi3LnpELr
1,right,1,1.2838,ST,medium,3,OSi3LnpELr
1,right,1,1.1187,ST,medium,4,OSi3LnpELr
0,left,1,1.4678,ST,medium,5,OSi3LnpELr
1,right,1,0.8177,ST,medium,6,OSi3LnpELr
0,left,1,1.1903,ST,medium,7,OSi3LnpELr
1,right,1,0.921,ST,medium,8,OSi3LnpELr
1,right,1,0.8179,ST,medium,9,OSi3LnpELr
0,left,1,0.6678,ST,medium,10,OSi3LnpELr
0,left,1,0.9583,ST,medium,11,OSi3LnpELr
1,right,1,0.836,ST,medium,12,OSi3LnpELr
0,left,1,0.9845,ST,medium,13,OSi3LnpELr
1,right,1,0.7438,ST,medium,14,OSi3LnpELr
0,left,1,0.7583,ST,medium,15,OSi3LnpELr
0,left,1,0.9337,ST,medium,16,OSi3LnpELr
1,right,1,2.0123,ST,easy,1,m0mjdT90SU
0,left,1,0.9511,ST,easy,2,m0mjdT90SU
1,right,1,1.7151,ST,easy,3,m0mjdT90SU
1,right,1,1.0623,ST,easy,4,m0mjdT90SU
1,right,1,1.2997,ST,easy,5,m0mjdT90SU
1,right,1,1.6289,ST,easy,6,m0mjdT90SU
0,left,1,0.7587,ST,easy,7,m0mjdT90SU
0,left,1,0.8691,ST,easy,8,m0mjdT90SU
0,left,1,1.1145,ST,easy,9,m0mjdT90SU
1,right,1,0.9633,ST,easy,10,m0mjdT90SU
0,left,1,1.5695,ST,easy,11,m0mjdT90SU
1,right,1,1.4677,ST,easy,12,m0mjdT90SU
1,right,1,0.8008,ST,easy,13,m0mjdT90SU
0,left,1,0.9517,ST,easy,14,m0mjdT90SU
1,right,1,1.3628,ST,easy,15,m0mjdT90SU
0,left,1,0.7625,ST,easy,16,m0mjdT90SU
1,left,0,1.7109,ST,hard,1,m0mjdT90SU
0,left,1,2.011,ST,hard,2,m0mjdT90SU
1,right,1,0.9185,ST,hard,3,m0mjdT90SU
1,right,1,1.2155,ST,hard,4,m0mjdT90SU
0,left,1,1.077,ST,hard,5,m0mjdT90SU
0,left,1,0.9857,ST,hard,6,m0mjdT90SU
1,right,1,1.0344,ST,hard,7,m0mjdT90SU
1,left,0,1.1163,ST,hard,8,m0mjdT90SU
1,right,1,1.347,ST,hard,9,m0mjdT90SU
1,left,0,1.1984,ST,hard,10,m0mjdT90SU
1,left,0,0.6722,ST,hard,11,m0mjdT90SU
0,left,1,1.2282,ST,hard,12,m0mjdT90SU
0,left,1,0.934,ST,hard,13,m0mjdT90SU
0,left,1,1.8147,ST,hard,14,m0mjdT90SU
0,left,1,1.119,ST,hard,15,m0mjdT90SU
0,left,1,1.2919,ST,hard,16,m0mjdT90SU
1,right,1,6.8762,ST,medium,1,m0mjdT90SU
0,left,1,1.3318,ST,medium,2,m0mjdT90SU
1,right,1,1.6176,ST,medium,3,m0mjdT90SU
1,right,1,1.3313,ST,medium,4,m0mjdT90SU
0,left,1,1.0642,ST,medium,5,m0mjdT90SU
1,right,1,1.5294,ST,medium,6,m0mjdT90SU
1,right,1,1.3161,ST,medium,7,m0mjdT90SU
0,left,1,1.3341,ST,medium,8,m0mjdT90SU
1,left,0,1.1667,ST,medium,9,m0mjdT90SU
1,right,1,1.3508,ST,medium,10,m0mjdT90SU
1,right,1,1.0329,ST,medium,11,m0mjdT90SU
0,left,1,1.314,ST,medium,12,m0mjdT90SU
0,left,1,1.3645,ST,medium,13,m0mjdT90SU
0,right,0,1.3347,ST,medium,14,m0mjdT90SU
1,right,1,1.0287,ST,medium,15,m0mjdT90SU
1,right,1,1.268,ST,medium,16,m0mjdT90SU
1,right,1,1.0929,ST,easy,1,I64skoy66n
1,right,1,1.1335,ST,easy,2,I64skoy66n
1,right,1,1.3166,ST,easy,3,I64skoy66n
0,left,1,0.9702,ST,easy,4,I64skoy66n
1,right,1,0.9575,ST,easy,5,I64skoy66n
0,left,1,2.5173,ST,easy,6,I64skoy66n
1,right,1,0.9595,ST,easy,7,I64skoy66n
1,right,1,0.7719,ST,easy,8,I64skoy66n
0,left,1,1.367,ST,easy,9,I64skoy66n
0,left,1,1.8236,ST,easy,10,I64skoy66n
0,left,1,1.0735,ST,easy,11,I64skoy66n
1,right,1,1.2409,ST,easy,12,I64skoy66n
0,left,1,1.0689,ST,easy,13,I64skoy66n
1,right,1,1.1169,ST,easy,14,I64skoy66n
0,left,1,0.9848,ST,easy,15,I64skoy66n
0,left,1,1.5998000000000001,ST,easy,16,I64skoy66n
1,left,0,1.1196,ST,hard,1,I64skoy66n
1,left,0,2.0895,ST,hard,2,I64skoy66n
1,right,1,1.461,ST,hard,3,I64skoy66n
1,left,0,2.5324,ST,hard,4,I64skoy66n
0,right,0,5.9476,ST,hard,5,I64skoy66n
1,right,1,1.2335,ST,hard,6,I64skoy66n
1,right,1,1.2501,ST,hard,7,I64skoy66n
1,left,0,0.9006,ST,hard,8,I64skoy66n
0,left,1,2.7154,ST,hard,9,I64skoy66n
0,left,1,3.0933,ST,hard,10,I64skoy66n
1,right,1,0.935,ST,hard,11,I64skoy66n
0,left,1,2.8553,ST,hard,12,I64skoy66n
1,right,1,1.3783,ST,hard,13,I64skoy66n
1,right,1,2.4706,ST,hard,14,I64skoy66n
1,left,0,1.9495,ST,hard,15,I64skoy66n
1,right,1,2.7936,ST,hard,16,I64skoy66n
0,left,1,1.2277,ST,medium,1,I64skoy66n
0,right,0,0.9168,ST,medium,2,I64skoy66n
1,right,1,1.117,ST,medium,3,I64skoy66n
1,left,0,1.0188,ST,medium,4,I64skoy66n
1,left,0,2.0662,ST,medium,5,I64skoy66n
0,left,1,1.3558,ST,medium,6,I64skoy66n
1,left,0,1.7115,ST,medium,7,I64skoy66n
0,left,1,1.194,ST,medium,8,I64skoy66n
1,right,1,1.339,ST,medium,9,I64skoy66n
1,right,1,1.7022,ST,medium,10,I64skoy66n
0,left,1,1.5069,ST,medium,11,I64skoy66n
0,left,1,1.1845,ST,medium,12,I64skoy66n
1,left,0,2.2922,ST,medium,13,I64skoy66n
0,right,0,2.4353,ST,medium,14,I64skoy66n
1,right,1,1.5673,ST,medium,15,I64skoy66n
0,left,1,0.8878,ST,medium,16,I64skoy66n
0,left,1,0.894,ST,easy,1,l8OD3O4E3f
0,left,1,0.714,ST,easy,2,l8OD3O4E3f
0,left,1,0.613,ST,easy,3,l8OD3O4E3f
0,left,1,0.847,ST,easy,4,l8OD3O4E3f
0,left,1,0.655,ST,easy,5,l8OD3O4E3f
1,right,1,0.821,ST,easy,6,l8OD3O4E3f
1,right,1,0.747,ST,easy,7,l8OD3O4E3f
1,right,1,0.797,ST,easy,8,l8OD3O4E3f
1,right,1,0.648,ST,easy,9,l8OD3O4E3f
1,right,1,0.679,ST,easy,10,l8OD3O4E3f
1,right,1,0.516,ST,easy,11,l8OD3O4E3f
1,right,1,0.668,ST,easy,12,l8OD3O4E3f
0,left,1,1.279,ST,easy,13,l8OD3O4E3f
0,left,1,0.714,ST,easy,14,l8OD3O4E3f
1,right,1,0.603,ST,easy,15,l8OD3O4E3f
1,right,1,0.937,ST,easy,16,l8OD3O4E3f
1,right,1,0.782,ST,hard,1,l8OD3O4E3f
1,left,0,2.514,ST,hard,2,l8OD3O4E3f
1,left,0,1.23,ST,hard,3,l8OD3O4E3f
1,left,0,1.029,ST,hard,4,l8OD3O4E3f
0,left,1,0.97,ST,hard,5,l8OD3O4E3f
0,left,1,1.156,ST,hard,6,l8OD3O4E3f
1,right,1,0.98,ST,hard,7,l8OD3O4E3f
1,right,1,0.586,ST,hard,8,l8OD3O4E3f
1,left,0,0.83,ST,hard,9,l8OD3O4E3f
1,right,1,0.645,ST,hard,10,l8OD3O4E3f
1,right,1,0.762,ST,hard,11,l8OD3O4E3f
0,left,1,1.546,ST,hard,12,l8OD3O4E3f
1,right,1,0.779,ST,hard,13,l8OD3O4E3f
0,left,1,2.28,ST,hard,14,l8OD3O4E3f
0,left,1,1.023,ST,hard,15,l8OD3O4E3f
1,left,0,0.979,ST,hard,16,l8OD3O4E3f
1,right,1,1.043,ST,medium,1,l8OD3O4E3f
1,right,1,1.012,ST,medium,2,l8OD3O4E3f
0,left,1,1.146,ST,medium,3,l8OD3O4E3f
1,right,1,2.296,ST,medium,4,l8OD3O4E3f
1,right,1,0.68,ST,medium,5,l8OD3O4E3f
1,right,1,0.752,ST,medium,6,l8OD3O4E3f
1,right,1,0.996,ST,medium,7,l8OD3O4E3f
1,right,1,1.581,ST,medium,8,l8OD3O4E3f
0,left,1,1.014,ST,medium,9,l8OD3O4E3f
1,left,0,1.13,ST,medium,10,l8OD3O4E3f
1,right,1,1.096,ST,medium,11,l8OD3O4E3f
1,left,0,0.913,ST,medium,12,l8OD3O4E3f
0,left,1,0.746,ST,medium,13,l8OD3O4E3f
1,left,0,0.754,ST,medium,14,l8OD3O4E3f
0,left,1,1.043,ST,medium,15,l8OD3O4E3f
1,right,1,0.619,ST,medium,16,l8OD3O4E3f
0,left,1,1.113,ST,easy,1,s04AljyS4e
1,right,1,1.934,ST,easy,2,s04AljyS4e
1,left,0,1.05,ST,easy,3,s04AljyS4e
1,right,1,1.882,ST,easy,4,s04AljyS4e
0,left,1,1.105,ST,easy,5,s04AljyS4e
1,right,1,1.337,ST,easy,6,s04AljyS4e
0,left,1,0.747,ST,easy,7,s04AljyS4e
1,right,1,1.06,ST,easy,8,s04AljyS4e
1,right,1,1.173,ST,easy,9,s04AljyS4e
0,left,1,4.471,ST,easy,10,s04AljyS4e
1,right,1,1.17,ST,easy,11,s04AljyS4e
0,left,1,1.861,ST,easy,12,s04AljyS4e
1,right,1,1.068,ST,easy,13,s04AljyS4e
1,right,1,1.49,ST,easy,14,s04AljyS4e
1,left,0,3.971,ST,easy,15,s04AljyS4e
0,left,1,1.085,ST,easy,16,s04AljyS4e
1,right,1,2.706,ST,hard,1,s04AljyS4e
1,right,1,0.891,ST,hard,2,s04AljyS4e
0,left,1,1.016,ST,hard,3,s04AljyS4e
1,left,0,0.876,ST,hard,4,s04AljyS4e
0,left,1,0.78,ST,hard,5,s04AljyS4e
1,left,0,0.795,ST,hard,6,s04AljyS4e
