target_present,key,is_correct,rt,task,level,trial,id,pool
1,right,1,2.4599,ST,easy,1,jKBHzXx0Pg,pool1
1,right,1,2.065,ST,easy,2,jKBHzXx0Pg,pool1
1,right,1,1.7812,ST,easy,3,jKBHzXx0Pg,pool1
0,left,1,3.5234,ST,easy,4,jKBHzXx0Pg,pool1
0,left,1,2.2678,ST,easy,5,jKBHzXx0Pg,pool1
0,left,1,4.3384,ST,easy,6,jKBHzXx0Pg,pool1
1,right,1,1.7489,ST,easy,7,jKBHzXx0Pg,pool1
1,right,1,1.9467,ST,easy,8,jKBHzXx0Pg,pool1
1,right,1,1.3682,ST,easy,9,jKBHzXx0Pg,pool1
1,right,1,1.2309,ST,easy,10,jKBHzXx0Pg,pool1
0,left,1,3.5156,ST,easy,11,jKBHzXx0Pg,pool1
0,left,1,1.152,ST,easy,12,jKBHzXx0Pg,pool1
0,right,0,1.8199,ST,easy,13,jKBHzXx0Pg,pool1
0,left,1,2.0319,ST,easy,14,jKBHzXx0Pg,pool1
0,left,1,1.8477,ST,easy,15,jKBHzXx0Pg,pool1
0,left,1,1.9207,ST,easy,16,jKBHzXx0Pg,pool1
1,right,1,9.5713,ST,hard,1,jKBHzXx0Pg,pool1
0,left,1,8.9323,ST,hard,2,jKBHzXx0Pg,pool1
1,right,1,3.0001,ST,hard,3,jKBHzXx0Pg,pool1
1,right,1,2.736,ST,hard,4,jKBHzXx0Pg,pool1
1,right,1,4.0203,ST,hard,5,jKBHzXx0Pg,pool1
0,left,1,2.9993,ST,hard,6,jKBHzXx0Pg,pool1
1,right,1,2.0175,ST,hard,7,jKBHzXx0Pg,pool1
0,left,1,3.1653,ST,hard,8,jKBHzXx0Pg,pool1
1,right,1,3.2178,ST,hard,9,jKBHzXx0Pg,pool1
0,left,1,2.1672,ST,hard,10,jKBHzXx0Pg,pool1
1,right,1,1.6472,ST,hard,11,jKBHzXx0Pg,pool1
0,left,1,2.2486,ST,hard,12,jKBHzXx0Pg,pool1
0,left,1,3.2509,ST,hard,13,jKBHzXx0Pg,pool1
0,left,1,1.9045,ST,hard,14,jKBHzXx0Pg,pool1
1,right,1,1.8974,ST,hard,15,jKBHzXx0Pg,pool1
0,left,1,2.233,ST,hard,16,jKBHzXx0Pg,pool1
0,left,1,4.3249,ST,medium,1,jKBHzXx0Pg,pool1
0,left,1,3.0983,ST,medium,2,jKBHzXx0Pg,pool1
1,right,1,2.1703,ST,medium,3,jKBHzXx0Pg,pool1
0,left,1,1.7411,ST,medium,4,jKBHzXx0Pg,pool1
1,right,1,2.007,ST,medium,5,jKBHzXx0Pg,pool1
0,left,1,2.6716,ST,medium,6,jKBHzXx0Pg,pool1
0,left,1,2.5973,ST,medium,7,jKBHzXx0Pg,pool1
1,right,1,1.8507,ST,medium,8,jKBHzXx0Pg,pool1
0,left,1,1.5069,ST,medium,9,jKBHzXx0Pg,pool1
1,right,1,1.7486,ST,medium,10,jKBHzXx0Pg,pool1
0,left,1,1.8488,ST,medium,11,jKBHzXx0Pg,pool1
1,right,1,1.6914,ST,medium,12,jKBHzXx0Pg,pool1
0,left,1,1.8987,ST,medium,13,jKBHzXx0Pg,pool1
1,right,1,1.5701,ST,medium,14,jKBHzXx0Pg,pool1
1,right,1,1.6152,ST,medium,15,jKBHzXx0Pg,pool1
1,right,1,1.4141,ST,medium,16,jKBHzXx0Pg,pool1
0,left,1,3.3071,ST,easy,1,TqUBvW8Aaz,pool1
0,left,1,1.3157,ST,easy,2,TqUBvW8Aaz,pool1
1,right,1,1.1031,ST,easy,3,TqUBvW8Aaz,pool1
1,right,1,0.5778,ST,easy,4,TqUBvW8Aaz,pool1
0,left,1,4.6286,ST,easy,5,TqUBvW8Aaz,pool1
1,right,1,0.9443,ST,easy,6,TqUBvW8Aaz,pool1
1,right,1,0.8281,ST,easy,7,TqUBvW8Aaz,pool1
1,right,1,0.9107,ST,easy,8,TqUBvW8Aaz,pool1
0,left,1,2.3115,ST,easy,9,TqUBvW8Aaz,pool1
0,left,1,2.4393,ST,easy,10,TqUBvW8Aaz,pool1
1,right,1,0.7641,ST,easy,11,TqUBvW8Aaz,pool1
1,right,1,0.8777,ST,easy,12,TqUBvW8Aaz,pool1
1,right,1,0.6962,ST,easy,13,TqUBvW8Aaz,pool1
0,left,1,1.5493,ST,easy,14,TqUBvW8Aaz,pool1
1,right,1,0.8766,ST,easy,15,TqUBvW8Aaz,pool1
0,left,1,1.2957,ST,easy,16,TqUBvW8Aaz,pool1
1,right,1,6.3863,ST,hard,1,TqUBvW8Aaz,pool1
0,right,0,2.6861,ST,hard,2,TqUBvW8Aaz,pool1
1,left,0,1.9238,ST,hard,3,TqUBvW8Aaz,pool1
0,left,1,2.5725,ST,hard,4,TqUBvW8Aaz,pool1
0,right,0,1.1773,ST,hard,5,TqUBvW8Aaz,pool1
0,left,1,1.8415,ST,hard,6,TqUBvW8Aaz,pool1
0,left,1,2.8954,ST,hard,7,TqUBvW8Aaz,pool1
1,right,1,1.2185,ST,hard,8,TqUBvW8Aaz,pool1
0,left,1,1.5823,ST,hard,9,TqUBvW8Aaz,pool1
0,left,1,1.6088,ST,hard,10,TqUBvW8Aaz,pool1
1,right,1,0.7794,ST,hard,11,TqUBvW8Aaz,pool1
1,right,1,1.0606,ST,hard,12,TqUBvW8Aaz,pool1
0,left,1,2.523,ST,hard,13,TqUBvW8Aaz,pool1
1,right,1,1.0983,ST,hard,14,TqUBvW8Aaz,pool1
0,right,0,1.907,ST,hard,15,TqUBvW8Aaz,pool1
1,right,1,1.321,ST,hard,16,TqUBvW8Aaz,pool1
1,right,1,1.9684,ST,medium,1,TqUBvW8Aaz,pool1
1,right,1,2.3244,ST,medium,2,TqUBvW8Aaz,pool1
0,right,0,3.6992,ST,medium,3,TqUBvW8Aaz,pool1
0,left,1,1.4426,ST,medium,4,TqUBvW8Aaz,pool1
0,left,1,2.3118,ST,medium,5,TqUBvW8Aaz,pool1
0,left,1,1.4486,ST,medium,6,TqUBvW8Aaz,pool1
1,left,0,3.3589,ST,medium,7,TqUBvW8Aaz,pool1
1,right,1,1.0269,ST,medium,8,TqUBvW8Aaz,pool1
1,left,0,1.928,ST,medium,9,TqUBvW8Aaz,pool1
1,right,1,0.9937,ST,medium,10,TqUBvW8Aaz,pool1
0,left,1,1.4962,ST,medium,11,TqUBvW8Aaz,pool1
1,right,1,4.9978,ST,medium,12,TqUBvW8Aaz,pool1
0,left,1,1.1601,ST,medium,13,TqUBvW8Aaz,pool1
1,right,1,0.6179,ST,medium,14,TqUBvW8Aaz,pool1
1,left,0,3.2216,ST,medium,15,TqUBvW8Aaz,pool1
0,left,1,1.1213,ST,medium,16,TqUBvW8Aaz,pool1
0,left,1,1.319,ST,easy,1,WAh9qhgg6o,pool1
1,right,1,1.055,ST,easy,2,WAh9qhgg6o,pool1
0,left,1,1.133,ST,easy,3,WAh9qhgg6o,pool1
1,right,1,1.2,ST,easy,4,WAh9qhgg6o,pool1
1,right,1,0.933,ST,easy,5,WAh9qhgg6o,pool1
0,left,1,0.787,ST,easy,6,WAh9qhgg6o,pool1
1,right,1,1.027,ST,easy,7,WAh9qhgg6o,pool1
1,right,1,1.08,ST,easy,8,WAh9qhgg6o,pool1
1,right,1,0.734,ST,easy,9,WAh9qhgg6o,pool1
0,left,1,0.721,ST,easy,10,WAh9qhgg6o,pool1
1,right,1,0.854,ST,easy,11,WAh9qhgg6o,pool1
1,right,1,1.201,ST,easy,12,WAh9qhgg6o,pool1
0,left,1,0.881,ST,easy,13,WAh9qhgg6o,pool1
1,right,1,0.681,ST,easy,14,WAh9qhgg6o,pool1
0,left,1,0.761,ST,easy,15,WAh9qhgg6o,pool1
1,right,1,0.841,ST,easy,16,WAh9qhgg6o,pool1
1,right,1,1.01,ST,hard,1,WAh9qhgg6o,pool1
0,right,0,1.56,ST,hard,2,WAh9qhgg6o,pool1
1,left,0,0.883,ST,hard,3,WAh9qhgg6o,pool1
0,left,1,1.014,ST,hard,4,WAh9qhgg6o,pool1
1,right,1,0.561,ST,hard,5,WAh9qhgg6o,pool1
1,right,1,0.627,ST,hard,6,WAh9qhgg6o,pool1
0,left,1,0.747,ST,hard,7,WAh9qhgg6o,pool1
0,right,0,1.12,ST,hard,8,WAh9qhgg6o,pool1
1,right,1,0.614,ST,hard,9,WAh9qhgg6o,pool1
1,left,0,1.293,ST,hard,10,WAh9qhgg6o,pool1
1,right,1,0.574,ST,hard,11,WAh9qhgg6o,pool1
1,left,0,0.751,ST,hard,12,WAh9qhgg6o,pool1
1,right,1,0.466,ST,hard,13,WAh9qhgg6o,pool1
0,left,1,0.72,ST,hard,14,WAh9qhgg6o,pool1
1,left,0,1.16,ST,hard,15,WAh9qhgg6o,pool1
0,left,1,1.787,ST,hard,16,WAh9qhgg6o,pool1
0,left,1,4.692,ST,medium,1,WAh9qhgg6o,pool1
0,left,1,1.08,ST,medium,2,WAh9qhgg6o,pool1
0,left,1,0.881,ST,medium,3,WAh9qhgg6o,pool1
0,left,1,1.094,ST,medium,4,WAh9qhgg6o,pool1
1,right,1,1.001,ST,medium,5,WAh9qhgg6o,pool1
1,right,1,0.773,ST,medium,6,WAh9qhgg6o,pool1
0,left,1,0.865,ST,medium,7,WAh9qhgg6o,pool1
0,left,1,0.867,ST,medium,8,WAh9qhgg6o,pool1
1,right,1,0.881,ST,medium,9,WAh9qhgg6o,pool1
0,right,0,1.294,ST,medium,10,WAh9qhgg6o,pool1
1,right,1,0.788,ST,medium,11,WAh9qhgg6o,pool1
1,right,1,0.605,ST,medium,12,WAh9qhgg6o,pool1
0,left,1,0.867,ST,medium,13,WAh9qhgg6o,pool1
0,right,0,0.707,ST,medium,14,WAh9qhgg6o,pool1
1,left,0,0.92,ST,medium,15,WAh9qhgg6o,pool1
1,left,0,0.96,ST,medium,16,WAh9qhgg6o,pool1
1,right,1,1.752,ST,easy,1,6xDo1DDaCf,pool1
0,left,1,1.49,ST,easy,2,6xDo1DDaCf,pool1
0,left,1,1.665,ST,easy,3,6xDo1DDaCf,pool1
1,right,1,1.416,ST,easy,4,6xDo1DDaCf,pool1
1,right,1,3.042,ST,easy,5,6xDo1DDaCf,pool1
1,right,1,1.618,ST,easy,6,6xDo1DDaCf,pool1
1,right,1,1.234,ST,easy,7,6xDo1DDaCf,pool1
0,left,1,1.524,ST,easy,8,6xDo1DDaCf,pool1
1,right,1,1.166,ST,easy,9,6xDo1DDaCf,pool1
1,right,1,1.592,ST,easy,10,6xDo1DDaCf,pool1
0,left,1,1.33,ST,easy,11,6xDo1DDaCf,pool1
0,left,1,1.596,ST,easy,12,6xDo1DDaCf,pool1
1,right,1,1.217,ST,easy,13,6xDo1DDaCf,pool1
1,right,1,1.771,ST,easy,14,6xDo1DDaCf,pool1
1,right,1,1.804,ST,easy,15,6xDo1DDaCf,pool1
1,right,1,1.329,ST,easy,16,6xDo1DDaCf,pool1
0,left,1,3.075,ST,hard,1,6xDo1DDaCf,pool1
0,left,1,2.419,ST,hard,2,6xDo1DDaCf,pool1
0,left,1,2.074,ST,hard,3,6xDo1DDaCf,pool1
1,right,1,2.86,ST,hard,4,6xDo1DDaCf,pool1
1,right,1,2.214,ST,hard,5,6xDo1DDaCf,pool1
0,left,1,1.781,ST,hard,6,6xDo1DDaCf,pool1
1,right,1,2.433,ST,hard,7,6xDo1DDaCf,pool1
1,right,1,1.696,ST,hard,8,6xDo1DDaCf,pool1
1,right,1,2.097,ST,hard,9,6xDo1DDaCf,pool1
0,left,1,2.966,ST,hard,10,6xDo1DDaCf,pool1
0,left,1,2.037,ST,hard,11,6xDo1DDaCf,pool1
0,left,1,2.176,ST,hard,12,6xDo1DDaCf,pool1
0,left,1,2.036,ST,hard,13,6xDo1DDaCf,pool1
0,left,1,2.039,ST,hard,14,6xDo1DDaCf,pool1
1,right,1,1.955,ST,hard,15,6xDo1DDaCf,pool1
1,right,1,1.776,ST,hard,16,6xDo1DDaCf,pool1
1,right,1,3.45,ST,medium,1,6xDo1DDaCf,pool1
1,right,1,2.362,ST,medium,2,6xDo1DDaCf,pool1
1,right,1,2.128,ST,medium,3,6xDo1DDaCf,pool1
1,right,1,1.446,ST,medium,4,6xDo1DDaCf,pool1
1,right,1,1.458,ST,medium,5,6xDo1DDaCf,pool1
1,right,1,1.527,ST,medium,6,6xDo1DDaCf,pool1
1,right,1,1.975,ST,medium,7,6xDo1DDaCf,pool1
0,left,1,2.272,ST,medium,8,6xDo1DDaCf,pool1
0,left,1,2.847,ST,medium,9,6xDo1DDaCf,pool1
1,right,1,1.461,ST,medium,10,6xDo1DDaCf,pool1
1,right,1,1.607,ST,medium,11,6xDo1DDaCf,pool1
1,right,1,1.248,ST,medium,12,6xDo1DDaCf,pool1
0,left,1,2.751,ST,medium,13,6xDo1DDaCf,pool1
1,right,1,1.349,ST,medium,14,6xDo1DDaCf,pool1
0,left,1,1.745,ST,medium,15,6xDo1DDaCf,pool1
1,right,1,1.517,ST,medium,16,6xDo1DDaCf,pool1
1,right,1,1.2621,ST,easy,1,9ZffIZqFHz,pool1
0,left,1,1.2722,ST,easy,2,9ZffIZqFHz,pool1
0,left,1,0.8522,ST,easy,3,9ZffIZqFHz,pool1
0,left,1,0.7332,ST,easy,4,9ZffIZqFHz,pool1
0,left,1,0.9606,ST,easy,5,9ZffIZqFHz,pool1
1,right,1,0.8187,ST,easy,6,9ZffIZqFHz,pool1
1,right,1,0.9934,ST,easy,7,9ZffIZqFHz,pool1
1,right,1,1.5598,ST,easy,8,9ZffIZqFHz,pool1
1,right,1,1.0235,ST,easy,9,9ZffIZqFHz,pool1
1,right,1,0.9641,ST,easy,10,9ZffIZqFHz,pool1
1,right,1,0.8454,ST,easy,11,9ZffIZqFHz,pool1
1,right,1,0.8708,ST,easy,12,9ZffIZqFHz,pool1
1,right,1,0.843,ST,easy,13,9ZffIZqFHz,pool1
0,left,1,0.8612,ST,easy,14,9ZffIZqFHz,pool1
1,right,1,1.1015,ST,easy,15,9ZffIZqFHz,pool1
1,right,1,0.9911,ST,easy,16,9ZffIZqFHz,pool1
1,left,0,1.3005,ST,hard,1,9ZffIZqFHz,pool1
1,right,1,0.86240000000000006,ST,hard,2,9ZffIZqFHz,pool1
1,right,1,0.8784,ST,hard,3,9ZffIZqFHz,pool1
1,right,1,0.8385,ST,hard,4,9ZffIZqFHz,pool1
1,right,1,0.743,ST,hard,5,9ZffIZqFHz,pool1
1,right,1,0.995,ST,hard,6,9ZffIZqFHz,pool1
1,left,0,1.3019,ST,hard,7,9ZffIZqFHz,pool1
1,left,0,1.002,ST,hard,8,9ZffIZqFHz,pool1
1,right,1,1.0228,ST,hard,9,9ZffIZqFHz,pool1
0,left,1,0.8712,ST,hard,10,9ZffIZqFHz,pool1
0,left,1,0.8615,ST,hard,11,9ZffIZqFHz,pool1
1,right,1,1.1378,ST,hard,12,9ZffIZqFHz,pool1
0,left,1,1.1636,ST,hard,13,9ZffIZqFHz,pool1
0,left,1,1.0076,ST,hard,14,9ZffIZqFHz,pool1
0,left,1,0.8505,ST,hard,15,9ZffIZqFHz,pool1
1,right,1,2.424,ST,hard,16,9ZffIZqFHz,pool1
0,left,1,1.2638,ST,medium,1,9ZffIZqFHz,pool1
0,left,1,1.1359,ST,medium,2,9ZffIZqFHz,pool1
1,right,1,1.1353,ST,medium,3,9ZffIZqFHz,pool1
1,right,1,1.2141,ST,medium,4,9ZffIZqFHz,pool1
0,left,1,1.2851,ST,medium,5,9ZffIZqFHz,pool1
0,left,1,1.9486,ST,medium,6,9ZffIZqFHz,pool1
0,right,0,0.8432,ST,medium,7,9ZffIZqFHz,pool1
1,right,1,0.9953,ST,medium,8,9ZffIZqFHz,pool1
1,right,1,1.4141,ST,medium,9,9ZffIZqFHz,pool1
0,left,1,0.9949,ST,medium,10,9ZffIZqFHz,pool1
0,left,1,0.9926,ST,medium,11,9ZffIZqFHz,pool1
1,right,1,1.108,ST,medium,12,9ZffIZqFHz,pool1
0,right,0,1.8533,ST,medium,13,9ZffIZqFHz,pool1
1,right,1,0.853,ST,medium,14,9ZffIZqFHz,pool1
1,right,1,1.1425,ST,medium,15,9ZffIZqFHz,pool1
1,right,1,1.6517,ST,medium,16,9ZffIZqFHz,pool1
1,right,1,2.8156,ST,easy,1,wiRZfBYOru,pool2
0,left,1,2.1857,ST,easy,2,wiRZfBYOru,pool2
1,right,1,1.6355,ST,easy,3,wiRZfBYOru,pool2
1,left,0,4.2439,ST,easy,4,wiRZfBYOru,pool2
0,left,1,2.1043,ST,easy,5,wiRZfBYOru,pool2
0,left,1,2.0205,ST,easy,6,wiRZfBYOru,pool2
0,left,1,1.7921,ST,easy,7,wiRZfBYOru,pool2
1,right,1,1.6482,ST,easy,8,wiRZfBYOru,pool2
1,right,1,2.1427,ST,easy,9,wiRZfBYOru,pool2
0,left,1,1.6884,ST,easy,10,wiRZfBYOru,pool2
1,right,1,1.9935,ST,easy,11,wiRZfBYOru,pool2
1,right,1,1.6661,ST,easy,12,wiRZfBYOru,pool2
1,right,1,1.5114,ST,easy,13,wiRZfBYOru,pool2
0,left,1,1.4832,ST,easy,14,wiRZfBYOru,pool2
0,left,1,1.2585,ST,easy,15,wiRZfBYOru,pool2
1,right,1,1.4389,ST,easy,16,wiRZfBYOru,pool2
1,left,0,4.0674,ST,hard,1,wiRZfBYOru,pool2
0,left,1,6.1998,ST,hard,2,wiRZfBYOru,pool2
0,left,1,5.2927,ST,hard,3,wiRZfBYOru,pool2
1,right,1,2.795,ST,hard,4,wiRZfBYOru,pool2
1,right,1,3.2036,ST,hard,5,wiRZfBYOru,pool2
1,right,1,3.9012,ST,hard,6,wiRZfBYOru,pool2
0,left,1,2.747,ST,hard,7,wiRZfBYOru,pool2
0,left,1,4.1495,ST,hard,8,wiRZfBYOru,pool2
0,left,1,6.3314,ST,hard,9,wiRZfBYOru,pool2
0,left,1,2.9017,ST,hard,10,wiRZfBYOru,pool2
1,right,1,3.0767,ST,hard,11,wiRZfBYOru,pool2
0,right,0,4.4879,ST,hard,12,wiRZfBYOru,pool2
0,left,1,3.3553,ST,hard,13,wiRZfBYOru,pool2
1,right,1,5.1842,ST,hard,14,wiRZfBYOru,pool2
1,right,1,3.305,ST,hard,15,wiRZfBYOru,pool2
1,right,1,2.419,ST,hard,16,wiRZfBYOru,pool2
1,right,1,4.4324,ST,medium,1,wiRZfBYOru,pool2
1,right,1,2.132,ST,medium,2,wiRZfBYOru,pool2
1,right,1,2.6813,ST,medium,3,wiRZfBYOru,pool2
0,left,1,4.6587,ST,medium,4,wiRZfBYOru,pool2
1,right,1,1.7769,ST,medium,5,wiRZfBYOru,pool2
0,left,1,5.6693,ST,medium,6,wiRZfBYOru,pool2
0,right,0,14.638,ST,medium,7,wiRZfBYOru,pool2
0,left,1,2.3375,ST,medium,8,wiRZfBYOru,pool2
1,right,1,2.4974,ST,medium,9,wiRZfBYOru,pool2
1,right,1,1.6801,ST,medium,10,wiRZfBYOru,pool2
0,left,1,1.8672,ST,medium,11,wiRZfBYOru,pool2
1,right,1,2.0374,ST,medium,12,wiRZfBYOru,pool2
0,left,1,1.837,ST,medium,13,wiRZfBYOru,pool2
1,right,1,1.7185,ST,medium,14,wiRZfBYOru,pool2
1,right,1,1.5172,ST,medium,15,wiRZfBYOru,pool2
0,left,1,3.0017,ST,medium,16,wiRZfBYOru,pool2
0,left,1,3.4374,ST,easy,1,cCWrG11sgp,pool2
1,right,1,2.0331,ST,easy,2,cCWrG11sgp,pool2
1,right,1,1.5018,ST,easy,3,cCWrG11sgp,pool2
0,left,1,1.5871,ST,easy,4,cCWrG11sgp,pool2
1,right,1,3.1502,ST,easy,5,cCWrG11sgp,pool2
0,left,1,1.3882,ST,easy,6,cCWrG11sgp,pool2
0,left,1,2.1069,ST,easy,7,cCWrG11sgp,pool2
0,left,1,1.655,ST,easy,8,cCWrG11sgp,pool2
0,left,1,1.1495,ST,easy,9,cCWrG11sgp,pool2
0,left,1,1.0398,ST,easy,10,cCWrG11sgp,pool2
1,right,1,1.9188,ST,easy,11,cCWrG11sgp,pool2
0,left,1,1.0495,ST,easy,12,cCWrG11sgp,pool2
0,left,1,1.4356,ST,easy,13,cCWrG11sgp,pool2
1,right,1,2.1689,ST,easy,14,cCWrG11sgp,pool2
1,right,1,1.5089,ST,easy,15,cCWrG11sgp,pool2
0,left,1,1.6033,ST,easy,16,cCWrG11sgp,pool2
0,right,0,2.1173,ST,hard,1,cCWrG11sgp,pool2
0,left,1,3.7134,ST,hard,2,cCWrG11sgp,pool2
0,left,1,2.2164,ST,hard,3,cCWrG11sgp,pool2
1,right,1,2.5603,ST,hard,4,cCWrG11sgp,pool2
1,right,1,3.5585,ST,hard,5,cCWrG11sgp,pool2
0,left,1,2.7228,ST,hard,6,cCWrG11sgp,pool2
0,left,1,3.0072,ST,hard,7,cCWrG11sgp,pool2
1,right,1,2.2197,ST,hard,8,cCWrG11sgp,pool2
1,right,1,2.1371000000000002,ST,hard,9,cCWrG11sgp,pool2
0,left,1,1.9877,ST,hard,10,cCWrG11sgp,pool2
0,left,1,2.1771,ST,hard,11,cCWrG11sgp,pool2
1,left,0,2.7865,ST,hard,12,cCWrG11sgp,pool2
1,right,1,3.7416,ST,hard,13,cCWrG11sgp,pool2
0,left,1,2.4424,ST,hard,14,cCWrG11sgp,pool2
0,left,1,2.6405,ST,hard,15,cCWrG11sgp,pool2
1,right,1,2.0433,ST,hard,16,cCWrG11sgp,pool2
0,left,1,1.6977,ST,medium,1,cCWrG11sgp,pool2
1,right,1,5.0402,ST,medium,2,cCWrG11sgp,pool2
0,left,1,1.8873,ST,medium,3,cCWrG11sgp,pool2
1,right,1,1.2501,ST,medium,4,cCWrG11sgp,pool2
0,left,1,1.983,ST,medium,5,cCWrG11sgp,pool2
1,right,1,1.4722,ST,medium,6,cCWrG11sgp,pool2
0,left,1,2.1874,ST,medium,7,cCWrG11sgp,pool2
1,right,1,1.2429,ST,medium,8,cCWrG11sgp,pool2
0,left,1,1.5668,ST,medium,9,cCWrG11sgp,pool2
1,right,1,2.2385,ST,medium,10,cCWrG11sgp,pool2
1,right,1,2.8268,ST,medium,11,cCWrG11sgp,pool2
0,left,1,1.5807,ST,medium,12,cCWrG11sgp,pool2
0,left,1,1.2318,ST,medium,13,cCWrG11sgp,pool2
1,right,1,2.7089,ST,medium,14,cCWrG11sgp,pool2
0,left,1,1.3577,ST,medium,15,cCWrG11sgp,pool2
1,right,1,1.4124,ST,medium,16,cCWrG11sgp,pool2
0,left,1,2.2878,ST,easy,1,gI6hCgCchT,pool2
1,right,1,2.7667,ST,easy,2,gI6hCgCchT,pool2
1,right,1,3.5765,ST,easy,3,gI6hCgCchT,pool2
0,left,1,3.1002,ST,easy,4,gI6hCgCchT,pool2
1,right,1,1.6666,ST,easy,5,gI6hCgCchT,pool2
1,right,1,1.8692,ST,easy,6,gI6hCgCchT,pool2
0,right,0,2.1667,ST,easy,7,gI6hCgCchT,pool2
1,right,1,1.8671,ST,easy,8,gI6hCgCchT,pool2
0,left,1,1.5678,ST,easy,9,gI6hCgCchT,pool2
0,left,1,1.9496,ST,easy,10,gI6hCgCchT,pool2
1,right,1,1.9171,ST,easy,11,gI6hCgCchT,pool2
0,left,1,2.8355,ST,easy,12,gI6hCgCchT,pool2
0,left,1,1.9504,ST,easy,13,gI6hCgCchT,pool2
0,left,1,1.3486,ST,easy,14,gI6hCgCchT,pool2
0,left,1,1.5221,ST,easy,15,gI6hCgCchT,pool2
1,right,1,2.6335,ST,easy,16,gI6hCgCchT,pool2
1,right,1,1.5184,ST,hard,1,gI6hCgCchT,pool2
1,right,1,1.7389,ST,hard,2,gI6hCgCchT,pool2
0,left,1,2.8157,ST,hard,3,gI6hCgCchT,pool2
0,left,1,4.6018,ST,hard,4,gI6hCgCchT,pool2
1,right,1,1.3604,ST,hard,5,gI6hCgCchT,pool2
1,right,1,1.2334,ST,hard,6,gI6hCgCchT,pool2
1,right,1,1.088,ST,hard,7,gI6hCgCchT,pool2
1,right,1,1.0722,ST,hard,8,gI6hCgCchT,pool2
0,left,1,2.7803,ST,hard,9,gI6hCgCchT,pool2
0,left,1,1.7339,ST,hard,10,gI6hCgCchT,pool2
1,left,0,2.3739,ST,hard,11,gI6hCgCchT,pool2
0,right,0,1.3819,ST,hard,12,gI6hCgCchT,pool2
1,right,1,0.8875,ST,hard,13,gI6hCgCchT,pool2
1,right,1,0.5663,ST,hard,14,gI6hCgCchT,pool2
1,left,0,1.2386,ST,hard,15,gI6hCgCchT,pool2
0,left,1,1.6942,ST,hard,16,gI6hCgCchT,pool2
1,left,0,4.6126,ST,medium,1,gI6hCgCchT,pool2
1,right,1,2.3024,ST,medium,2,gI6hCgCchT,pool2
1,right,1,1.5872,ST,medium,3,gI6hCgCchT,pool2
1,right,1,1.873,ST,medium,4,gI6hCgCchT,pool2
1,right,1,1.2491,ST,medium,5,gI6hCgCchT,pool2
1,right,1,1.0953,ST,medium,6,gI6hCgCchT,pool2
0,left,1,1.5845,ST,medium,7,gI6hCgCchT,pool2
1,right,1,1.4357,ST,medium,8,gI6hCgCchT,pool2
0,left,1,2.2002,ST,medium,9,gI6hCgCchT,pool2
0,left,1,2.2197,ST,medium,10,gI6hCgCchT,pool2
1,right,1,1.7039,ST,medium,11,gI6hCgCchT,pool2
0,left,1,1.6753,ST,medium,12,gI6hCgCchT,pool2
1,right,1,1.8174,ST,medium,13,gI6hCgCchT,pool2
1,left,0,1.3167,ST,medium,14,gI6hCgCchT,pool2
0,left,1,1.1048,ST,medium,15,gI6hCgCchT,pool2
1,right,1,1.1878,ST,medium,16,gI6hCgCchT,pool2
0,left,1,2.7605,ST,easy,1,kGWL9y5AS9,pool2
0,left,1,2.6161,ST,easy,2,kGWL9y5AS9,pool2
1,right,1,1.6495,ST,easy,3,kGWL9y5AS9,pool2
1,right,1,1.681,ST,easy,4,kGWL9y5AS9,pool2
0,left,1,1.5674,ST,easy,5,kGWL9y5AS9,pool2
0,left,1,1.6995,ST,easy,6,kGWL9y5AS9,pool2
0,left,1,2.7999,ST,easy,7,kGWL9y5AS9,pool2
1,right,1,1.5915,ST,easy,8,kGWL9y5AS9,pool2
0,left,1,2.2665,ST,easy,9,kGWL9y5AS9,pool2
0,left,1,2.354,ST,easy,10,kGWL9y5AS9,pool2
0,left,1,2.7489,ST,easy,11,kGWL9y5AS9,pool2
0,left,1,2.3167,ST,easy,12,kGWL9y5AS9,pool2
1,right,1,1.6663,ST,easy,13,kGWL9y5AS9,pool2
1,right,1,3.0996,ST,easy,14,kGWL9y5AS9,pool2
1,left,0,1.9911,ST,easy,15,kGWL9y5AS9,pool2
1,right,1,1.7505,ST,easy,16,kGWL9y5AS9,pool2
1,right,1,5.8775,ST,hard,1,kGWL9y5AS9,pool2
0,left,1,6.6327,ST,hard,2,kGWL9y5AS9,pool2
0,left,1,7.5657,ST,hard,3,kGWL9y5AS9,pool2
0,left,1,6.3708,ST,hard,4,kGWL9y5AS9,pool2
0,left,1,6.3832,ST,hard,5,kGWL9y5AS9,pool2
1,right,1,3.7886,ST,hard,6,kGWL9y5AS9,pool2
1,right,1,3.919,ST,hard,7,kGWL9y5AS9,pool2
0,left,1,6.9322,ST,hard,8,kGWL9y5AS9,pool2
1,right,1,4.6989,ST,hard,9,kGWL9y5AS9,pool2
1,right,1,3.2329,ST,hard,10,kGWL9y5AS9,pool2
1,right,1,2.6704,ST,hard,11,kGWL9y5AS9,pool2
1,right,1,5.1665,ST,hard,12,kGWL9y5AS9,pool2
0,left,1,6.7151,ST,hard,13,kGWL9y5AS9,pool2
0,right,0,3.0672,ST,hard,14,kGWL9y5AS9,pool2
0,left,1,5.2001,ST,hard,15,kGWL9y5AS9,pool2
0,left,1,4.9185,ST,hard,16,kGWL9y5AS9,pool2
1,left,0,6.8255,ST,medium,1,kGWL9y5AS9,pool2
0,left,1,3.617,ST,medium,2,kGWL9y5AS9,pool2
1,right,1,2.2002,ST,medium,3,kGWL9y5AS9,pool2
0,left,1,4.1322,ST,medium,4,kGWL9y5AS9,pool2
0,left,1,3.4344,ST,medium,5,kGWL9y5AS9,pool2
1,right,1,2.2674,ST,medium,6,kGWL9y5AS9,pool2
1,right,1,2.2711,ST,medium,7,kGWL9y5AS9,pool2
1,right,1,2.0865,ST,medium,8,kGWL9y5AS9,pool2
1,right,1,1.9005,ST,medium,9,kGWL9y5AS9,pool2
1,right,1,2.4505,ST,medium,10,kGWL9y5AS9,pool2
0,left,1,5.9,ST,medium,11,kGWL9y5AS9,pool2
1,right,1,1.8844,ST,medium,12,kGWL9y5AS9,pool2
0,left,1,6.7498,ST,medium,13,kGWL9y5AS9,pool2
0,left,1,2.6328,ST,medium,14,kGWL9y5AS9,pool2
0,left,1,9.2359000000000009,ST,medium,15,kGWL9y5AS9,pool2
1,right,1,1.8199,ST,medium,16,kGWL9y5AS9,pool2
0,left,1,4.9639,ST,easy,1,ntoLpzjCrW,pool2
1,right,1,2.466,ST,easy,2,ntoLpzjCrW,pool2
0,left,1,2.6898,ST,easy,3,ntoLpzjCrW,pool2
1,right,1,2.3543,ST,easy,4,ntoLpzjCrW,pool2
0,left,1,2.0235,ST,easy,5,ntoLpzjCrW,pool2
0,left,1,3.7048,ST,easy,6,ntoLpzjCrW,pool2
0,left,1,2.3843,ST,easy,7,ntoLpzjCrW,pool2
0,left,1,2.45,ST,easy,8,ntoLpzjCrW,pool2
0,left,1,2.0322,ST,easy,9,ntoLpzjCrW,pool2
0,left,1,1.6515,ST,easy,10,ntoLpzjCrW,pool2
1,right,1,2.5346,ST,easy,11,ntoLpzjCrW,pool2
1,right,1,2.2354,ST,easy,12,ntoLpzjCrW,pool2
1,right,1,2.7339,ST,easy,13,ntoLpzjCrW,pool2
1,right,1,1.8343,ST,easy,14,ntoLpzjCrW,pool2
0,left,1,1.6014,ST,easy,15,ntoLpzjCrW,pool2
1,right,1,2.2006,ST,easy,16,ntoLpzjCrW,pool2
0,left,1,14.9949,ST,hard,1,ntoLpzjCrW,pool2
0,left,1,4.4153,ST,hard,2,ntoLpzjCrW,pool2
1,right,1,6.2003,ST,hard,3,ntoLpzjCrW,pool2
0,left,1,5.9493,ST,hard,4,ntoLpzjCrW,pool2
0,left,1,6.8332,ST,hard,5,ntoLpzjCrW,pool2
1,right,1,4.8653,ST,hard,6,ntoLpzjCrW,pool2
1,right,1,4.4333,ST,hard,7,ntoLpzjCrW,pool2
0,left,1,5.966,ST,hard,8,ntoLpzjCrW,pool2
0,right,0,3.8161,ST,hard,9,ntoLpzjCrW,pool2
1,right,1,3.1833,ST,hard,10,ntoLpzjCrW,pool2
0,left,1,7.3749,ST,hard,11,ntoLpzjCrW,pool2
0,left,1,4.0336,ST,hard,12,ntoLpzjCrW,pool2
0,left,1,2.8342,ST,hard,13,ntoLpzjCrW,pool2
1,right,1,2.4165,ST,hard,14,ntoLpzjCrW,pool2
0,left,1,3.1416,ST,hard,15,ntoLpzjCrW,pool2
1,right,1,2.8344,ST,hard,16,ntoLpzjCrW,pool2
1,right,1,4.5469,ST,medium,1,ntoLpzjCrW,pool2
0,left,1,4.2669,ST,medium,2,ntoLpzjCrW,pool2
1,right,1,3.2403,ST,medium,3,ntoLpzjCrW,pool2
1,right,1,5.0052,ST,medium,4,ntoLpzjCrW,pool2
0,left,1,3.2838,ST,medium,5,ntoLpzjCrW,pool2
0,left,1,2.8,ST,medium,6,ntoLpzjCrW,pool2
1,right,1,3.6693,ST,medium,7,ntoLpzjCrW,pool2
0,left,1,3.3506,ST,medium,8,ntoLpzjCrW,pool2
1,right,1,3.1002,ST,medium,9,ntoLpzjCrW,pool2
1,right,1,3.234,ST,medium,10,ntoLpzjCrW,pool2
0,left,1,2.0688,ST,medium,11,ntoLpzjCrW,pool2
1,right,1,2.6036,ST,medium,12,ntoLpzjCrW,pool2
1,right,1,2.9751,ST,medium,13,ntoLpzjCrW,pool2
1,right,1,2.8512,ST,medium,14,ntoLpzjCrW,pool2
1,right,1,2.1001,ST,medium,15,ntoLpzjCrW,pool2
1,right,1,6.2165,ST,medium,16,ntoLpzjCrW,pool2
1,right,1,0.5251,ST,easy,1,12zOSfawTO,pool2
1,right,1,0.5272,ST,easy,2,12zOSfawTO,pool2
1,right,1,0.4381,ST,easy,3,12zOSfawTO,pool2
0,right,0,1.0476,ST,easy,4,12zOSfawTO,pool2
1,right,1,1.0501,ST,easy,5,12zOSfawTO,pool2
0,right,0,1.1351,ST,easy,6,12zOSfawTO,pool2
1,right,1,1.1342,ST,easy,7,12zOSfawTO,pool2
1,right,1,1.4829,ST,easy,8,12zOSfawTO,pool2
1,right,1,0.7878,ST,easy,9,12zOSfawTO,pool2
0,right,0,0.5258,ST,easy,10,12zOSfawTO,pool2
0,right,0,0.2639,ST,easy,11,12zOSfawTO,pool2
0,right,0,0.0902,ST,easy,12,12zOSfawTO,pool2
1,right,1,0.0914,ST,easy,13,12zOSfawTO,pool2
1,right,1,0.0042,ST,easy,14,12zOSfawTO,pool2
1,right,1,0.1772,ST,easy,15,12zOSfawTO,pool2
0,right,0,0.0023,ST,easy,16,12zOSfawTO,pool2
0,left,1,5.3474,ST,hard,1,12zOSfawTO,pool2
0,left,1,1.4031,ST,hard,2,12zOSfawTO,pool2
1,left,0,1.4795,ST,hard,3,12zOSfawTO,pool2
1,left,0,1.7515,ST,hard,4,12zOSfawTO,pool2
1,left,0,2.1036,ST,hard,5,12zOSfawTO,pool2
0,left,1,1.1328,ST,hard,6,12zOSfawTO,pool2
0,left,1,1.0456,ST,hard,7,12zOSfawTO,pool2
0,left,1,1.0482,ST,hard,8,12zOSfawTO,pool2
1,right,1,1.3973,ST,hard,9,12zOSfawTO,pool2
0,right,0,0.4382,ST,hard,10,12zOSfawTO,pool2
1,right,1,0.2646,ST,hard,11,12zOSfawTO,pool2
1,right,1,0.4385,ST,hard,12,12zOSfawTO,pool2
0,right,0,0.1775,ST,hard,13,12zOSfawTO,pool2
1,right,1,0.1779,ST,hard,14,12zOSfawTO,pool2
0,right,0,0.0904,ST,hard,15,12zOSfawTO,pool2
1,right,1,0.2636,ST,hard,16,12zOSfawTO,pool2
0,right,0,0.002,ST,medium,1,12zOSfawTO,pool2
0,right,0,0.1763,ST,medium,2,12zOSfawTO,pool2
0,right,0,0.0025,ST,medium,3,12zOSfawTO,pool2
0,right,0,0.0024,ST,medium,4,12zOSfawTO,pool2
0,right,0,0.091,ST,medium,5,12zOSfawTO,pool2
1,right,1,0.0022,ST,medium,6,12zOSfawTO,pool2
1,right,1,0.09,ST,medium,7,12zOSfawTO,pool2
0,right,0,0.1762,ST,medium,8,12zOSfawTO,pool2
0,right,0,0.0906,ST,medium,9,12zOSfawTO,pool2
0,right,0,0.0901,ST,medium,10,12zOSfawTO,pool2
1,right,1,0.0024,ST,medium,11,12zOSfawTO,pool2
0,right,0,0.1768,ST,medium,12,12zOSfawTO,pool2
1,right,1,0.0025,ST,medium,13,12zOSfawTO,pool2
1,right,1,0.0023,ST,medium,14,12zOSfawTO,pool2
0,right,0,0.092,ST,medium,15,12zOSfawTO,pool2
1,right,1,0.0903,ST,medium,16,12zOSfawTO,pool2
1,right,1,2.4125,ST,easy,1,DVCsNitb7p,pool2
0,left,1,1.1619,ST,easy,2,DVCsNitb7p,pool2
1,right,1,1.4436,ST,easy,3,DVCsNitb7p,pool2
0,left,1,1.2732,ST,easy,4,DVCsNitb7p,pool2
0,left,1,1.103,ST,easy,5,DVCsNitb7p,pool2
1,right,1,1.3556,ST,easy,6,DVCsNitb7p,pool2
0,left,1,1.908,ST,easy,7,DVCsNitb7p,pool2
0,left,1,1.1928,ST,easy,8,DVCsNitb7p,pool2
0,left,1,1.0509,ST,easy,9,DVCsNitb7p,pool2
1,right,1,1.5176,ST,easy,10,DVCsNitb7p,pool2
0,left,1,1.2855,ST,easy,11,DVCsNitb7p,pool2
0,right,0,1.5425,ST,easy,12,DVCsNitb7p,pool2
1,right,1,1.2772,ST,easy,13,DVCsNitb7p,pool2
0,left,1,0.7779,ST,easy,14,DVCsNitb7p,pool2
0,left,1,0.9518,ST,easy,15,DVCsNitb7p,pool2
0,left,1,1.8003,ST,easy,16,DVCsNitb7p,pool2
1,left,0,1.6826,ST,hard,1,DVCsNitb7p,pool2
1,left,0,2.6667,ST,hard,2,DVCsNitb7p,pool2
1,left,0,1.2839,ST,hard,3,DVCsNitb7p,pool2
0,left,1,1.6657,ST,hard,4,DVCsNitb7p,pool2
1,right,1,2.9993,ST,hard,5,DVCsNitb7p,pool2
1,right,1,1.1211,ST,hard,6,DVCsNitb7p,pool2
0,left,1,1.4832,ST,hard,7,DVCsNitb7p,pool2
1,right,1,2.1498,ST,hard,8,DVCsNitb7p,pool2
0,left,1,1.3838,ST,hard,9,DVCsNitb7p,pool2
0,left,1,1.3395,ST,hard,10,DVCsNitb7p,pool2
0,left,1,1.3834,ST,hard,11,DVCsNitb7p,pool2
1,right,1,2.0589,ST,hard,12,DVCsNitb7p,pool2
1,right,1,1.8043,ST,hard,13,DVCsNitb7p,pool2
1,left,0,1.1573,ST,hard,14,DVCsNitb7p,pool2
1,left,0,1.0909,ST,hard,15,DVCsNitb7p,pool2
1,left,0,1.0512,ST,hard,16,DVCsNitb7p,pool2
0,left,1,2.1834,ST,medium,1,DVCsNitb7p,pool2
1,left,0,1.4877,ST,medium,2,DVCsNitb7p,pool2
0,left,1,0.9863,ST,medium,3,DVCsNitb7p,pool2
0,left,1,0.8244,ST,medium,4,DVCsNitb7p,pool2
1,left,0,2.238,ST,medium,5,DVCsNitb7p,pool2
0,right,0,2.0833,ST,medium,6,DVCsNitb7p,pool2
0,right,0,1.32,ST,medium,7,DVCsNitb7p,pool2
0,left,1,1.9937,ST,medium,8,DVCsNitb7p,pool2
0,left,1,1.1254,ST,medium,9,DVCsNitb7p,pool2
0,left,1,0.9989,ST,medium,10,DVCsNitb7p,pool2
1,left,0,1.2619,ST,medium,11,DVCsNitb7p,pool2
0,left,1,0.8938,ST,medium,12,DVCsNitb7p,pool2
0,left,1,0.969,ST,medium,13,DVCsNitb7p,pool2
1,right,1,1.0834,ST,medium,14,DVCsNitb7p,pool2
1,left,0,1.1592,ST,medium,15,DVCsNitb7p,pool2
1,right,1,1.0421,ST,medium,16,DVCsNitb7p,pool2
0,left,1,1.4777,ST,easy,1,sPXXgeOo7t,pool2
0,left,1,1.2533,ST,easy,2,sPXXgeOo7t,pool2
1,right,1,0.9146,ST,easy,3,sPXXgeOo7t,pool2
1,right,1,0.9198,ST,easy,4,sPXXgeOo7t,pool2
0,left,1,0.8752,ST,easy,5,sPXXgeOo7t,pool2
0,left,1,0.7436,ST,easy,6,sPXXgeOo7t,pool2
1,right,1,0.7273,ST,easy,7,sPXXgeOo7t,pool2
0,left,1,1.3296,ST,easy,8,sPXXgeOo7t,pool2
0,left,1,0.8873,ST,easy,9,sPXXgeOo7t,pool2
0,left,1,0.8507,ST,easy,10,sPXXgeOo7t,pool2
1,right,1,1.1965,ST,easy,11,sPXXgeOo7t,pool2
0,left,1,0.6752,ST,easy,12,sPXXgeOo7t,pool2
0,left,1,4.2997,ST,easy,13,sPXXgeOo7t,pool2
1,right,1,1.0398,ST,easy,14,sPXXgeOo7t,pool2
1,right,1,0.8794,ST,easy,15,sPXXgeOo7t,pool2
1,right,1,5.9126,ST,easy,16,sPXXgeOo7t,pool2
1,right,1,1.6046,ST,hard,1,sPXXgeOo7t,pool2
0,left,1,1.509,ST,hard,2,sPXXgeOo7t,pool2
1,right,1,1.4528,ST,hard,3,sPXXgeOo7t,pool2
1,right,1,1.1106,ST,hard,4,sPXXgeOo7t,pool2
0,left,1,1.175,ST,hard,5,sPXXgeOo7t,pool2
1,left,0,1.0493,ST,hard,6,sPXXgeOo7t,pool2
0,right,0,1.119,ST,hard,7,sPXXgeOo7t,pool2
1,left,0,1.1519,ST,hard,8,sPXXgeOo7t,pool2
1,right,1,1.5663,ST,hard,9,sPXXgeOo7t,pool2
1,left,0,0.8613,ST,hard,10,sPXXgeOo7t,pool2
1,left,0,3.8351,ST,hard,11,sPXXgeOo7t,pool2
0,left,1,2.6866,ST,hard,12,sPXXgeOo7t,pool2
1,right,1,2.0134,ST,hard,13,sPXXgeOo7t,pool2
0,left,1,1.942,ST,hard,14,sPXXgeOo7t,pool2
0,left,1,1.797,ST,hard,15,sPXXgeOo7t,pool2
1,right,1,1.7073,ST,hard,16,sPXXgeOo7t,pool2
0,left,1,1.1911,ST,medium,1,sPXXgeOo7t,pool2
0,left,1,1.9286,ST,medium,2,sPXXgeOo7t,pool2
1,right,1,1.5685,ST,medium,3,sPXXgeOo7t,pool2
0,left,1,1.7529,ST,medium,4,sPXXgeOo7t,pool2
1,right,1,1.9777,ST,medium,5,sPXXgeOo7t,pool2
0,left,1,1.4727,ST,medium,6,sPXXgeOo7t,pool2
0,left,1,2.4399,ST,medium,7,sPXXgeOo7t,pool2
1,right,1,1.4879,ST,medium,8,sPXXgeOo7t,pool2
0,left,1,1.5309,ST,medium,9,sPXXgeOo7t,pool2
0,left,1,1.97,ST,medium,10,sPXXgeOo7t,pool2
0,left,1,1.6501,ST,medium,11,sPXXgeOo7t,pool2
0,left,1,1.7025,ST,medium,12,sPXXgeOo7t,pool2
1,right,1,1.6352,ST,medium,13,sPXXgeOo7t,pool2
1,right,1,1.1504,ST,medium,14,sPXXgeOo7t,pool2
1,right,1,1.1925,ST,medium,15,sPXXgeOo7t,pool2
0,left,1,1.5426,ST,medium,16,sPXXgeOo7t,pool2
1,right,1,1.3067,ST,easy,1,ujNKR4re1M,pool2
0,left,1,1.1456,ST,easy,2,ujNKR4re1M,pool2
1,right,1,1.4712,ST,easy,3,ujNKR4re1M,pool2
0,left,1,0.8008,ST,easy,4,ujNKR4re1M,pool2
1,right,1,1.084,ST,easy,5,ujNKR4re1M,pool2
0,left,1,0.7989,ST,easy,6,ujNKR4re1M,pool2
1,right,1,1.2801,ST,easy,7,ujNKR4re1M,pool2
0,left,1,0.6587,ST,easy,8,ujNKR4re1M,pool2
1,right,1,0.8321,ST,easy,9,ujNKR4re1M,pool2
1,right,1,2.3108,ST,easy,10,ujNKR4re1M,pool2
0,left,1,0.9373,ST,easy,11,ujNKR4re1M,pool2
0,left,1,0.8163,ST,easy,12,ujNKR4re1M,pool2
0,left,1,1.2214,ST,easy,13,ujNKR4re1M,pool2
0,left,1,0.6519,ST,easy,14,ujNKR4re1M,pool2
0,left,1,2.0867,ST,easy,15,ujNKR4re1M,pool2
1,right,1,0.7352,ST,easy,16,ujNKR4re1M,pool2
0,left,1,1.2327,ST,hard,1,ujNKR4re1M,pool2
0,left,1,1.3896,ST,hard,2,ujNKR4re1M,pool2
0,left,1,1.092,ST,hard,3,ujNKR4re1M,pool2
1,right,1,1.1905,ST,hard,4,ujNKR4re1M,pool2
0,left,1,1.1312,ST,hard,5,ujNKR4re1M,pool2
0,left,1,1.3375,ST,hard,6,ujNKR4re1M,pool2
0,left,1,1.1658,ST,hard,7,ujNKR4re1M,pool2
0,left,1,1.0913,ST,hard,8,ujNKR4re1M,pool2
1,left,0,1.202,ST,hard,9,ujNKR4re1M,pool2
1,left,0,1.4383,ST,hard,10,ujNKR4re1M,pool2
1,right,1,1.0079,ST,hard,11,ujNKR4re1M,pool2
1,left,0,1.1139,ST,hard,12,ujNKR4re1M,pool2
0,left,1,1.1234,ST,hard,13,ujNKR4re1M,pool2
1,left,0,0.8754,ST,hard,14,ujNKR4re1M,pool2
0,right,0,0.8726,ST,hard,15,ujNKR4re1M,pool2
0,left,1,0.81,ST,hard,16,ujNKR4re1M,pool2
1,left,0,0.63,ST,medium,1,ujNKR4re1M,pool2
0,left,1,0.9065,ST,medium,2,ujNKR4re1M,pool2
1,left,0,1.9128,ST,medium,3,ujNKR4re1M,pool2
0,left,1,0.8593,ST,medium,4,ujNKR4re1M,pool2
1,left,0,1.6575,ST,medium,5,ujNKR4re1M,pool2
0,right,0,0.888,ST,medium,6,ujNKR4re1M,pool2
0,left,1,0.6237,ST,medium,7,ujNKR4re1M,pool2
0,left,1,0.9524,ST,medium,8,ujNKR4re1M,pool2
0,left,1,0.6657,ST,medium,9,ujNKR4re1M,pool2
0,left,1,0.5889,ST,medium,10,ujNKR4re1M,pool2
0,left,1,0.7837,ST,medium,11,ujNKR4re1M,pool2
1,right,1,0.5408,ST,medium,12,ujNKR4re1M,pool2
1,left,0,0.797,ST,medium,13,ujNKR4re1M,pool2
0,left,1,1.0483,ST,medium,14,ujNKR4re1M,pool2
0,left,1,0.8343,ST,medium,15,ujNKR4re1M,pool2
1,right,1,0.6327,ST,medium,16,ujNKR4re1M,pool2
0,left,1,0.9555,ST,easy,1,8EBFmIUfAy,pool2
0,left,1,1.3034,ST,easy,2,8EBFmIUfAy,pool2
1,right,1,0.9591,ST,easy,3,8EBFmIUfAy,pool2
0,left,1,1.2813,ST,easy,4,8EBFmIUfAy,pool2
0,left,1,0.9588,ST,easy,5,8EBFmIUfAy,pool2
1,right,1,0.9839,ST,easy,6,8EBFmIUfAy,pool2
0,left,1,1.0534,ST,easy,7,8EBFmIUfAy,pool2
0,left,1,0.9731,ST,easy,8,8EBFmIUfAy,pool2
0,left,1,0.9671,ST,easy,9,8EBFmIUfAy,pool2
0,left,1,0.9615,ST,easy,10,8EBFmIUfAy,pool2
0,left,1,0.9801,ST,easy,11,8EBFmIUfAy,pool2
0,left,1,0.9579,ST,easy,12,8EBFmIUfAy,pool2
1,right,1,0.6419,ST,easy,13,8EBFmIUfAy,pool2
1,right,1,0.9606,ST,easy,14,8EBFmIUfAy,pool2
0,left,1,0.9579,ST,easy,15,8EBFmIUfAy,pool2
1,right,1,0.6427,ST,easy,16,8EBFmIUfAy,pool2
1,left,0,1.9128,ST,hard,1,8EBFmIUfAy,pool2
1,right,1,1.5846,ST,hard,2,8EBFmIUfAy,pool2
0,left,1,1.3443,ST,hard,3,8EBFmIUfAy,pool2
0,left,1,1.6983,ST,hard,4,8EBFmIUfAy,pool2
0,left,1,1.6027,ST,hard,5,8EBFmIUfAy,pool2
1,left,0,1.5933,ST,hard,6,8EBFmIUfAy,pool2
1,left,0,1.2694,ST,hard,7,8EBFmIUfAy,pool2
1,right,1,1.2772,ST,hard,8,8EBFmIUfAy,pool2
0,left,1,0.967,ST,hard,9,8EBFmIUfAy,pool2
0,left,1,1.2773,ST,hard,10,8EBFmIUfAy,pool2
0,left,1,1.2728,ST,hard,11,8EBFmIUfAy,pool2
1,right,1,0.957,ST,hard,12,8EBFmIUfAy,pool2
1,left,0,1.1132,ST,hard,13,8EBFmIUfAy,pool2
0,left,1,1.2775,ST,hard,14,8EBFmIUfAy,pool2
0,left,1,1.9151,ST,hard,15,8EBFmIUfAy,pool2
0,left,1,1.2705,ST,hard,16,8EBFmIUfAy,pool2
1,right,1,1.2905,ST,medium,1,8EBFmIUfAy,pool2
0,left,1,1.6117,ST,medium,2,8EBFmIUfAy,pool2
1,right,1,1.6278,ST,medium,3,8EBFmIUfAy,pool2
0,left,1,1.2748,ST,medium,4,8EBFmIUfAy,pool2
1,right,1,1.6048,ST,medium,5,8EBFmIUfAy,pool2
0,left,1,1.5101,ST,medium,6,8EBFmIUfAy,pool2
1,right,1,1.6092,ST,medium,7,8EBFmIUfAy,pool2
0,left,1,1.9173,ST,medium,8,8EBFmIUfAy,pool2
0,left,1,1.6027,ST,medium,9,8EBFmIUfAy,pool2
0,left,1,1.6228,ST,medium,10,8EBFmIUfAy,pool2
1,right,1,2.5412,ST,medium,11,8EBFmIUfAy,pool2
0,left,1,1.914,ST,medium,12,8EBFmIUfAy,pool2
0,right,0,1.682,ST,medium,13,8EBFmIUfAy,pool2
1,right,1,1.0356,ST,medium,14,8EBFmIUfAy,pool2
0,left,1,1.3462,ST,medium,15,8EBFmIUfAy,pool2
1,left,0,1.2939,ST,medium,16,8EBFmIUfAy,pool2
0,left,1,2.1005,ST,easy,1,aqEAPJJI8e,pool34
0,left,1,1.4182,ST,easy,2,aqEAPJJI8e,pool34
0,left,1,1.269,ST,easy,3,aqEAPJJI8e,pool34
1,right,1,1.3012,ST,easy,4,aqEAPJJI8e,pool34
1,right,1,1.2851,ST,easy,5,aqEAPJJI8e,pool34
0,left,1,1.347,ST,easy,6,aqEAPJJI8e,pool34
1,right,1,1.4514,ST,easy,7,aqEAPJJI8e,pool34
1,right,1,1.2542,ST,easy,8,aqEAPJJI8e,pool34
0,left,1,1.6774,ST,easy,9,aqEAPJJI8e,pool34
1,right,1,1.0021,ST,easy,10,aqEAPJJI8e,pool34
1,right,1,1.2395,ST,easy,11,aqEAPJJI8e,pool34
1,right,1,7.306,ST,easy,12,aqEAPJJI8e,pool34
0,left,1,1.4513,ST,easy,13,aqEAPJJI8e,pool34
1,right,1,1.1679,ST,easy,14,aqEAPJJI8e,pool34
1,right,1,1.1912,ST,easy,15,aqEAPJJI8e,pool34
0,left,1,1.3954,ST,easy,16,aqEAPJJI8e,pool34
0,left,1,2.7316,ST,hard,1,aqEAPJJI8e,pool34
0,right,0,1.2425,ST,hard,2,aqEAPJJI8e,pool34
0,left,1,1.3052,ST,hard,3,aqEAPJJI8e,pool34
1,right,1,1.9716,ST,hard,4,aqEAPJJI8e,pool34
0,left,1,5.225,ST,hard,5,aqEAPJJI8e,pool34
1,left,0,2.3856,ST,hard,6,aqEAPJJI8e,pool34
1,left,0,2.2,ST,hard,7,aqEAPJJI8e,pool34
0,right,0,2.2842,ST,hard,8,aqEAPJJI8e,pool34
0,left,1,2.1694,ST,hard,9,aqEAPJJI8e,pool34
1,left,0,2.6005,ST,hard,10,aqEAPJJI8e,pool34
1,right,1,2.0497,ST,hard,11,aqEAPJJI8e,pool34
1,right,1,2.5056,ST,hard,12,aqEAPJJI8e,pool34
1,left,0,2.5222,ST,hard,13,aqEAPJJI8e,pool34
0,left,1,1.952,ST,hard,14,aqEAPJJI8e,pool34
1,right,1,2.8595,ST,hard,15,aqEAPJJI8e,pool34
1,right,1,2.0416,ST,hard,16,aqEAPJJI8e,pool34
1,right,1,1.5833,ST,medium,1,aqEAPJJI8e,pool34
1,right,1,1.2529,ST,medium,2,aqEAPJJI8e,pool34
1,right,1,1.3888,ST,medium,3,aqEAPJJI8e,pool34
1,right,1,1.4352,ST,medium,4,aqEAPJJI8e,pool34
0,left,1,1.3181,ST,medium,5,aqEAPJJI8e,pool34
1,right,1,1.8683,ST,medium,6,aqEAPJJI8e,pool34
1,right,1,1.3013,ST,medium,7,aqEAPJJI8e,pool34
1,right,1,1.2853,ST,medium,8,aqEAPJJI8e,pool34
1,right,1,1.2905,ST,medium,9,aqEAPJJI8e,pool34
0,left,1,1.4993,ST,medium,10,aqEAPJJI8e,pool34
1,right,1,1.3954,ST,medium,11,aqEAPJJI8e,pool34
0,left,1,1.6394,ST,medium,12,aqEAPJJI8e,pool34
0,right,0,1.6334,ST,medium,13,aqEAPJJI8e,pool34
1,left,0,1.3264,ST,medium,14,aqEAPJJI8e,pool34
0,left,1,1.3785,ST,medium,15,aqEAPJJI8e,pool34
1,right,1,1.6496,ST,medium,16,aqEAPJJI8e,pool34
0,left,1,1.2592,ST,easy,1,rh40WUcVcA,pool34
1,right,1,0.8991,ST,easy,2,rh40WUcVcA,pool34
0,left,1,0.8983,ST,easy,3,rh40WUcVcA,pool34
0,left,1,0.7299,ST,easy,4,rh40WUcVcA,pool34
1,right,1,1.3088,ST,easy,5,rh40WUcVcA,pool34
0,left,1,1.0832,ST,easy,6,rh40WUcVcA,pool34
1,right,1,0.9077,ST,easy,7,rh40WUcVcA,pool34
1,left,0,0.897,ST,easy,8,rh40WUcVcA,pool34
0,right,0,0.7234,ST,easy,9,rh40WUcVcA,pool34
0,left,1,0.9047,ST,easy,10,rh40WUcVcA,pool34
0,left,1,0.9003,ST,easy,11,rh40WUcVcA,pool34
0,left,1,0.7229,ST,easy,12,rh40WUcVcA,pool34
1,right,1,1.0775,ST,easy,13,rh40WUcVcA,pool34
1,left,0,0.7224,ST,easy,14,rh40WUcVcA,pool34
1,left,0,0.8978,ST,easy,15,rh40WUcVcA,pool34
1,right,1,0.7268,ST,easy,16,rh40WUcVcA,pool34
1,left,0,1.8142,ST,hard,1,rh40WUcVcA,pool34
1,left,0,1.4425,ST,hard,2,rh40WUcVcA,pool34
1,left,0,4.2789,ST,hard,3,rh40WUcVcA,pool34
1,right,1,0.914,ST,hard,4,rh40WUcVcA,pool34
1,right,1,1.2624,ST,hard,5,rh40WUcVcA,pool34
1,left,0,2.4991,ST,hard,6,rh40WUcVcA,pool34
0,right,0,2.4905,ST,hard,7,rh40WUcVcA,pool34
0,right,0,0.8977,ST,hard,8,rh40WUcVcA,pool34
0,right,0,1.2527,ST,hard,9,rh40WUcVcA,pool34
0,right,0,1.0732,ST,hard,10,rh40WUcVcA,pool34
0,right,0,1.7883,ST,hard,11,rh40WUcVcA,pool34
1,left,0,1.4297,ST,hard,12,rh40WUcVcA,pool34
1,right,1,0.9024,ST,hard,13,rh40WUcVcA,pool34
0,left,1,0.9037,ST,hard,14,rh40WUcVcA,pool34
0,left,1,2.6811,ST,hard,15,rh40WUcVcA,pool34
0,left,1,1.6069,ST,hard,16,rh40WUcVcA,pool34
1,left,0,0.9026,ST,medium,1,rh40WUcVcA,pool34
1,left,0,1.114,ST,medium,2,rh40WUcVcA,pool34
1,right,1,1.2614,ST,medium,3,rh40WUcVcA,pool34
1,right,1,1.4297,ST,medium,4,rh40WUcVcA,pool34
0,left,1,1.0757,ST,medium,5,rh40WUcVcA,pool34
0,right,0,1.0843,ST,medium,6,rh40WUcVcA,pool34
1,left,0,2.8647,ST,medium,7,rh40WUcVcA,pool34
0,left,1,1.2615,ST,medium,8,rh40WUcVcA,pool34
1,left,0,3.0506,ST,medium,9,rh40WUcVcA,pool34
0,left,1,0.9042,ST,medium,10,rh40WUcVcA,pool34
0,left,1,0.7262,ST,medium,11,rh40WUcVcA,pool34
0,left,1,0.9016,ST,medium,12,rh40WUcVcA,pool34
0,left,1,0.9028,ST,medium,13,rh40WUcVcA,pool34
1,right,1,1.0756,ST,medium,14,rh40WUcVcA,pool34
1,left,0,1.2591,ST,medium,15,rh40WUcVcA,pool34
1,left,0,0.8982,ST,medium,16,rh40WUcVcA,pool34
1,right,1,1.6781,ST,easy,1,ky7vtw0gdz,pool34
1,right,1,0.7071,ST,easy,2,ky7vtw0gdz,pool34
1,right,1,0.8136,ST,easy,3,ky7vtw0gdz,pool34
1,right,1,0.983,ST,easy,4,ky7vtw0gdz,pool34
0,left,1,0.8085,ST,easy,5,ky7vtw0gdz,pool34
0,left,1,0.76,ST,easy,6,ky7vtw0gdz,pool34
1,right,1,0.5269,ST,easy,7,ky7vtw0gdz,pool34
0,left,1,0.8088,ST,easy,8,ky7vtw0gdz,pool34
1,right,1,0.5821,ST,easy,9,ky7vtw0gdz,pool34
0,left,1,1.0398,ST,easy,10,ky7vtw0gdz,pool34
1,right,1,0.5947,ST,easy,11,ky7vtw0gdz,pool34
1,left,0,0.6548,ST,easy,12,ky7vtw0gdz,pool34
0,right,0,0.8329,ST,easy,13,ky7vtw0gdz,pool34
0,left,1,0.8876,ST,easy,14,ky7vtw0gdz,pool34
1,right,1,0.6763,ST,easy,15,ky7vtw0gdz,pool34
1,right,1,0.6194,ST,easy,16,ky7vtw0gdz,pool34
0,left,1,1.3305,ST,hard,1,ky7vtw0gdz,pool34
0,left,1,1.1288,ST,hard,2,ky7vtw0gdz,pool34
0,left,1,1.1279,ST,hard,3,ky7vtw0gdz,pool34
0,left,1,1.4578,ST,hard,4,ky7vtw0gdz,pool34
1,right,1,1.0999,ST,hard,5,ky7vtw0gdz,pool34
0,left,1,0.8537,ST,hard,6,ky7vtw0gdz,pool34
0,left,1,0.961,ST,hard,7,ky7vtw0gdz,pool34
1,right,1,0.8938,ST,hard,8,ky7vtw0gdz,pool34
1,left,0,1.1205,ST,hard,9,ky7vtw0gdz,pool34
1,right,1,1.6985,ST,hard,10,ky7vtw0gdz,pool34
0,right,0,0.9745,ST,hard,11,ky7vtw0gdz,pool34
0,left,1,1.0815,ST,hard,12,ky7vtw0gdz,pool34
1,right,1,0.8004,ST,hard,13,ky7vtw0gdz,pool34
1,left,0,0.7676,ST,hard,14,ky7vtw0gdz,pool34
0,left,1,0.8671,ST,hard,15,ky7vtw0gdz,pool34
1,left,0,0.9131,ST,hard,16,ky7vtw0gdz,pool34
0,left,1,1.962,ST,medium,1,ky7vtw0gdz,pool34
0,left,1,1.0088,ST,medium,2,ky7vtw0gdz,pool34
1,left,0,0.9126,ST,medium,3,ky7vtw0gdz,pool34
1,right,1,1.1603,ST,medium,4,ky7vtw0gdz,pool34
1,left,0,1.8342,ST,medium,5,ky7vtw0gdz,pool34
0,left,1,0.8938,ST,medium,6,ky7vtw0gdz,pool34
0,left,1,2.2358,ST,medium,7,ky7vtw0gdz,pool34
1,right,1,0.9784,ST,medium,8,ky7vtw0gdz,pool34
1,right,1,1.5546,ST,medium,9,ky7vtw0gdz,pool34
0,right,0,1.8343,ST,medium,10,ky7vtw0gdz,pool34
1,right,1,1.5256,ST,medium,11,ky7vtw0gdz,pool34
0,left,1,1.0403,ST,medium,12,ky7vtw0gdz,pool34
1,right,1,2.2763,ST,medium,13,ky7vtw0gdz,pool34
1,right,1,3.4294,ST,medium,14,ky7vtw0gdz,pool34
0,left,1,2.2869,ST,medium,15,ky7vtw0gdz,pool34
0,left,1,3.2145,ST,medium,16,ky7vtw0gdz,pool34
1,right,1,1.8839,ST,easy,1,zvDM8Go5Bd,pool34
0,left,1,2.1108,ST,easy,2,zvDM8Go5Bd,pool34
0,left,1,1.3802,ST,easy,3,zvDM8Go5Bd,pool34
1,right,1,1.1566,ST,easy,4,zvDM8Go5Bd,pool34
0,left,1,1.8605,ST,easy,5,zvDM8Go5Bd,pool34
0,left,1,1.1622,ST,easy,6,zvDM8Go5Bd,pool34
1,right,1,0.9917,ST,easy,7,zvDM8Go5Bd,pool34
1,right,1,0.9507,ST,easy,8,zvDM8Go5Bd,pool34
1,right,1,0.9868,ST,easy,9,zvDM8Go5Bd,pool34
0,left,1,0.994,ST,easy,10,zvDM8Go5Bd,pool34
0,left,1,0.9531,ST,easy,11,zvDM8Go5Bd,pool34
1,right,1,0.9544,ST,easy,12,zvDM8Go5Bd,pool34
1,right,1,0.7185,ST,easy,13,zvDM8Go5Bd,pool34
0,left,1,1.1641,ST,easy,14,zvDM8Go5Bd,pool34
0,left,1,0.9387,ST,easy,15,zvDM8Go5Bd,pool34
0,left,1,0.7532,ST,easy,16,zvDM8Go5Bd,pool34
0,left,1,2.8136,ST,hard,1,zvDM8Go5Bd,pool34
0,left,1,1.9624,ST,hard,2,zvDM8Go5Bd,pool34
0,left,1,1.4253,ST,hard,3,zvDM8Go5Bd,pool34
1,right,1,1.1929,ST,hard,4,zvDM8Go5Bd,pool34
0,right,0,1.1825,ST,hard,5,zvDM8Go5Bd,pool34
1,right,1,1.6682,ST,hard,6,zvDM8Go5Bd,pool34
0,left,1,1.2108,ST,hard,7,zvDM8Go5Bd,pool34
0,left,1,1.4215,ST,hard,8,zvDM8Go5Bd,pool34
0,left,1,1.2147,ST,hard,9,zvDM8Go5Bd,pool34
0,left,1,0.9342,ST,hard,10,zvDM8Go5Bd,pool34
0,left,1,0.9468,ST,hard,11,zvDM8Go5Bd,pool34
0,left,1,0.9535,ST,hard,12,zvDM8Go5Bd,pool34
1,right,1,2.0387,ST,hard,13,zvDM8Go5Bd,pool34
1,left,0,1.1381,ST,hard,14,zvDM8Go5Bd,pool34
1,left,0,0.9858,ST,hard,15,zvDM8Go5Bd,pool34
0,left,1,1.1558,ST,hard,16,zvDM8Go5Bd,pool34
1,right,1,1.3983,ST,medium,1,zvDM8Go5Bd,pool34
1,right,1,1.2129,ST,medium,2,zvDM8Go5Bd,pool34
1,right,1,0.9755,ST,medium,3,zvDM8Go5Bd,pool34
0,left,1,1.1723,ST,medium,4,zvDM8Go5Bd,pool34
1,right,1,0.9371,ST,medium,5,zvDM8Go5Bd,pool34
1,left,0,1.2626,ST,medium,6,zvDM8Go5Bd,pool34
0,left,1,0.9519,ST,medium,7,zvDM8Go5Bd,pool34
0,left,1,0.972,ST,medium,8,zvDM8Go5Bd,pool34
0,left,1,0.9483,ST,medium,9,zvDM8Go5Bd,pool34
0,left,1,1.4401,ST,medium,10,zvDM8Go5Bd,pool34
0,left,1,0.9197,ST,medium,11,zvDM8Go5Bd,pool34
0,left,1,0.9937,ST,medium,12,zvDM8Go5Bd,pool34
1,right,1,0.9606,ST,medium,13,zvDM8Go5Bd,pool34
0,left,1,1.6974,ST,medium,14,zvDM8Go5Bd,pool34
1,right,1,0.9303,ST,medium,15,zvDM8Go5Bd,pool34
1,right,1,0.9782,ST,medium,16,zvDM8Go5Bd,pool34
1,right,1,0.991,ST,easy,1,7SltMY2Jba,pool34
1,right,1,0.689,ST,easy,2,7SltMY2Jba,pool34
1,right,1,0.718,ST,easy,3,7SltMY2Jba,pool34
0,left,1,0.926,ST,easy,4,7SltMY2Jba,pool34
0,left,1,0.903,ST,easy,5,7SltMY2Jba,pool34
0,left,1,0.774,ST,easy,6,7SltMY2Jba,pool34
0,left,1,0.715,ST,easy,7,7SltMY2Jba,pool34
1,right,1,0.598,ST,easy,8,7SltMY2Jba,pool34
0,left,1,1.875,ST,easy,9,7SltMY2Jba,pool34
1,right,1,1.239,ST,easy,10,7SltMY2Jba,pool34
0,left,1,0.754,ST,easy,11,7SltMY2Jba,pool34
1,right,1,1.008,ST,easy,12,7SltMY2Jba,pool34
0,left,1,0.7,ST,easy,13,7SltMY2Jba,pool34
0,left,1,0.815,ST,easy,14,7SltMY2Jba,pool34
1,right,1,0.88,ST,easy,15,7SltMY2Jba,pool34
1,right,1,0.568,ST,easy,16,7SltMY2Jba,pool34
1,right,1,2.459,ST,hard,1,7SltMY2Jba,pool34
0,left,1,1.135,ST,hard,2,7SltMY2Jba,pool34
0,right,0,1.519,ST,hard,3,7SltMY2Jba,pool34
1,left,0,2.453,ST,hard,4,7SltMY2Jba,pool34
1,left,0,1.596,ST,hard,5,7SltMY2Jba,pool34
1,right,1,1.379,ST,hard,6,7SltMY2Jba,pool34
1,left,0,1.378,ST,hard,7,7SltMY2Jba,pool34
0,left,1,1.621,ST,hard,8,7SltMY2Jba,pool34
1,right,1,0.858,ST,hard,9,7SltMY2Jba,pool34
0,left,1,0.921,ST,hard,10,7SltMY2Jba,pool34
0,right,0,0.973,ST,hard,11,7SltMY2Jba,pool34
1,right,1,0.805,ST,hard,12,7SltMY2Jba,pool34
0,left,1,0.761,ST,hard,13,7SltMY2Jba,pool34
0,left,1,0.854,ST,hard,14,7SltMY2Jba,pool34
0,left,1,0.972,ST,hard,15,7SltMY2Jba,pool34
1,right,1,1.802,ST,hard,16,7SltMY2Jba,pool34
1,right,1,1.128,ST,medium,1,7SltMY2Jba,pool34
0,left,1,0.955,ST,medium,2,7SltMY2Jba,pool34
1,right,1,1.183,ST,medium,3,7SltMY2Jba,pool34
1,right,1,1.207,ST,medium,4,7SltMY2Jba,pool34
0,right,0,1.537,ST,medium,5,7SltMY2Jba,pool34
1,right,1,0.619,ST,medium,6,7SltMY2Jba,pool34
1,right,1,1.483,ST,medium,7,7SltMY2Jba,pool34
0,left,1,0.726,ST,medium,8,7SltMY2Jba,pool34
0,left,1,1.785,ST,medium,9,7SltMY2Jba,pool34
1,right,1,0.954,ST,medium,10,7SltMY2Jba,pool34
1,left,0,0.735,ST,medium,11,7SltMY2Jba,pool34
1,right,1,0.906,ST,medium,12,7SltMY2Jba,pool34
1,right,1,0.668,ST,medium,13,7SltMY2Jba,pool34
0,left,1,0.865,ST,medium,14,7SltMY2Jba,pool34
1,right,1,0.611,ST,medium,15,7SltMY2Jba,pool34
1,right,1,1.107,ST,medium,16,7SltMY2Jba,pool34
0,left,1,1.133,ST,easy,1,PbOEQpRS9f,pool34
1,left,0,0.568,ST,easy,2,PbOEQpRS9f,pool34
0,left,1,1.515,ST,easy,3,PbOEQpRS9f,pool34
0,right,0,8.881,ST,easy,4,PbOEQpRS9f,pool34
0,left,1,0.703,ST,easy,5,PbOEQpRS9f,pool34
1,right,1,1.032,ST,easy,6,PbOEQpRS9f,pool34
1,right,1,0.525,ST,easy,7,PbOEQpRS9f,pool34
0,left,1,1.183,ST,easy,8,PbOEQpRS9f,pool34
0,left,1,0.768,ST,easy,9,PbOEQpRS9f,pool34
0,right,0,0.766,ST,easy,10,PbOEQpRS9f,pool34
0,left,1,0.85,ST,easy,11,PbOEQpRS9f,pool34
1,right,1,0.784,ST,easy,12,PbOEQpRS9f,pool34
0,left,1,0.932,ST,easy,13,PbOEQpRS9f,pool34
0,left,1,1.046,ST,easy,14,PbOEQpRS9f,pool34
0,left,1,0.635,ST,easy,15,PbOEQpRS9f,pool34
1,right,1,0.783,ST,easy,16,PbOEQpRS9f,pool34
1,right,1,3.988,ST,hard,1,PbOEQpRS9f,pool34
1,left,0,4.165,ST,hard,2,PbOEQpRS9f,pool34
0,left,1,1.538,ST,hard,3,PbOEQpRS9f,pool34
1,left,0,1.134,ST,hard,4,PbOEQpRS9f,pool34
1,right,1,0.7,ST,hard,5,PbOEQpRS9f,pool34
1,left,0,0.887,ST,hard,6,PbOEQpRS9f,pool34
0,left,1,0.818,ST,hard,7,PbOEQpRS9f,pool34
1,left,0,0.615,ST,hard,8,PbOEQpRS9f,pool34
1,left,0,0.721,ST,hard,9,PbOEQpRS9f,pool34
1,right,1,1.7,ST,hard,10,PbOEQpRS9f,pool34
1,left,0,0.438,ST,hard,11,PbOEQpRS9f,pool34
1,right,1,0.55,ST,hard,12,PbOEQpRS9f,pool34
1,left,0,1.599,ST,hard,13,PbOEQpRS9f,pool34
1,right,1,3.817,ST,hard,14,PbOEQpRS9f,pool34
1,right,1,0.334,ST,hard,15,PbOEQpRS9f,pool34
1,left,0,0.482,ST,hard,16,PbOEQpRS9f,pool34
0,left,1,0.879,ST,medium,1,PbOEQpRS9f,pool34
0,right,0,7.605,ST,medium,2,PbOEQpRS9f,pool34
1,left,0,0.658,ST,medium,3,PbOEQpRS9f,pool34
0,left,1,0.618,ST,medium,4,PbOEQpRS9f,pool34
1,left,0,0.801,ST,medium,5,PbOEQpRS9f,pool34
1,right,1,14.578,ST,medium,6,PbOEQpRS9f,pool34
1,right,1,0.966,ST,medium,7,PbOEQpRS9f,pool34
0,left,1,4.122,ST,medium,8,PbOEQpRS9f,pool34
0,right,0,0.852,ST,medium,9,PbOEQpRS9f,pool34
0,left,1,0.737,ST,medium,10,PbOEQpRS9f,pool34
1,right,1,0.844,ST,medium,11,PbOEQpRS9f,pool34
1,left,0,0.534,ST,medium,12,PbOEQpRS9f,pool34
1,right,1,0.334,ST,medium,13,PbOEQpRS9f,pool34
0,left,1,0.336,ST,medium,14,PbOEQpRS9f,pool34
1,right,1,0.432,ST,medium,15,PbOEQpRS9f,pool34
0,right,0,0.429,ST,medium,16,PbOEQpRS9f,pool34
1,right,1,2.0368,ST,easy,1,yTPpr0532t,pool34
0,left,1,1.2895,ST,easy,2,yTPpr0532t,pool34
1,right,1,1.304,ST,easy,3,yTPpr0532t,pool34
0,left,1,1.4692,ST,easy,4,yTPpr0532t,pool34
1,right,1,3.5747,ST,easy,5,yTPpr0532t,pool34
0,left,1,1.183,ST,easy,6,yTPpr0532t,pool34
1,right,1,1.4129,ST,easy,7,yTPpr0532t,pool34
1,right,1,1.3184,ST,easy,8,yTPpr0532t,pool34
1,right,1,1.3475,ST,easy,9,yTPpr0532t,pool34
1,right,1,1.1173,ST,easy,10,yTPpr0532t,pool34
1,right,1,2.309,ST,easy,11,yTPpr0532t,pool34
1,right,1,1.2351,ST,easy,12,yTPpr0532t,pool34
0,left,1,2.0004,ST,easy,13,yTPpr0532t,pool34
0,left,1,1.6119,ST,easy,14,yTPpr0532t,pool34
0,left,1,1.2477,ST,easy,15,yTPpr0532t,pool34
0,left,1,4.7461,ST,easy,16,yTPpr0532t,pool34
0,right,0,20.5932,ST,hard,1,yTPpr0532t,pool34
0,left,1,7.1163,ST,hard,2,yTPpr0532t,pool34
1,left,0,5.7236,ST,hard,3,yTPpr0532t,pool34
1,right,1,3.2999,ST,hard,4,yTPpr0532t,pool34
0,left,1,2.9667,ST,hard,5,yTPpr0532t,pool34
1,left,0,3.7072,ST,hard,6,yTPpr0532t,pool34
0,left,1,2.7458,ST,hard,7,yTPpr0532t,pool34
0,left,1,7.2968,ST,hard,8,yTPpr0532t,pool34
1,right,1,3.3089,ST,hard,9,yTPpr0532t,pool34
1,right,1,4.7773,ST,hard,10,yTPpr0532t,pool34
0,left,1,3.2076,ST,hard,11,yTPpr0532t,pool34
1,right,1,5.7629,ST,hard,12,yTPpr0532t,pool34
1,right,1,3.7423,ST,hard,13,yTPpr0532t,pool34
1,right,1,5.1456,ST,hard,14,yTPpr0532t,pool34
0,left,1,4.5113,ST,hard,15,yTPpr0532t,pool34
1,right,1,2.5121000000000002,ST,hard,16,yTPpr0532t,pool34
0,left,1,11.2109,ST,medium,1,yTPpr0532t,pool34
0,left,1,4.5607,ST,medium,2,yTPpr0532t,pool34
0,left,1,5.4606,ST,medium,3,yTPpr0532t,pool34
1,right,1,3.1932,ST,medium,4,yTPpr0532t,pool34
1,right,1,3.1743,ST,medium,5,yTPpr0532t,pool34
0,left,1,9.2184,ST,medium,6,yTPpr0532t,pool34
1,right,1,4.3774,ST,medium,7,yTPpr0532t,pool34
1,right,1,4.359,ST,medium,8,yTPpr0532t,pool34
0,left,1,3.6723,ST,medium,9,yTPpr0532t,pool34
1,right,1,3.245,ST,medium,10,yTPpr0532t,pool34
1,right,1,2.1754,ST,medium,11,yTPpr0532t,pool34
1,right,1,2.3858,ST,medium,12,yTPpr0532t,pool34
1,right,1,2.6722,ST,medium,13,yTPpr0532t,pool34
0,left,1,4.5601,ST,medium,14,yTPpr0532t,pool34
1,left,0,2.1058,ST,medium,15,yTPpr0532t,pool34
1,right,1,3.1448,ST,medium,16,yTPpr0532t,pool34
1,right,1,2.7654,ST,easy,1,YlvUbMLU90,pool34
1,right,1,2.1083,ST,easy,2,YlvUbMLU90,pool34
0,left,1,2.8687,ST,easy,3,YlvUbMLU90,pool34
1,right,1,1.9035,ST,easy,4,YlvUbMLU90,pool34
0,left,1,1.9879,ST,easy,5,YlvUbMLU90,pool34
1,right,1,1.8335,ST,easy,6,YlvUbMLU90,pool34
1,right,1,1.5501,ST,easy,7,YlvUbMLU90,pool34
0,left,1,1.984,ST,easy,8,YlvUbMLU90,pool34
1,right,1,1.952,ST,easy,9,YlvUbMLU90,pool34
1,right,1,1.5029,ST,easy,10,YlvUbMLU90,pool34
0,left,1,1.8172,ST,easy,11,YlvUbMLU90,pool34
1,right,1,1.8337,ST,easy,12,YlvUbMLU90,pool34
1,right,1,2.4671,ST,easy,13,YlvUbMLU90,pool34
0,left,1,1.8836,ST,easy,14,YlvUbMLU90,pool34
1,right,1,1.6507,ST,easy,15,YlvUbMLU90,pool34
0,left,1,1.7335,ST,easy,16,YlvUbMLU90,pool34
0,left,1,4.482,ST,hard,1,YlvUbMLU90,pool34
0,left,1,2.266,ST,hard,2,YlvUbMLU90,pool34
1,left,0,2.1333,ST,hard,3,YlvUbMLU90,pool34
1,left,0,1.941,ST,hard,4,YlvUbMLU90,pool34
1,left,0,1.4837,ST,hard,5,YlvUbMLU90,pool34
0,left,1,1.436,ST,hard,6,YlvUbMLU90,pool34
0,left,1,1.4051,ST,hard,7,YlvUbMLU90,pool34
1,left,0,1.5179,ST,hard,8,YlvUbMLU90,pool34
0,left,1,1.2338,ST,hard,9,YlvUbMLU90,pool34
0,left,1,1.1695,ST,hard,10,YlvUbMLU90,pool34
1,right,1,2.5861,ST,hard,11,YlvUbMLU90,pool34
0,right,0,1.5836,ST,hard,12,YlvUbMLU90,pool34
0,left,1,1.8969,ST,hard,13,YlvUbMLU90,pool34
1,left,0,1.283,ST,hard,14,YlvUbMLU90,pool34
0,left,1,1.3698,ST,hard,15,YlvUbMLU90,pool34
1,left,0,1.2388,ST,hard,16,YlvUbMLU90,pool34
0,left,1,2.0812,ST,medium,1,YlvUbMLU90,pool34
0,left,1,1.4019,ST,medium,2,YlvUbMLU90,pool34
0,left,1,0.6344,ST,medium,3,YlvUbMLU90,pool34
0,right,0,2.2841,ST,medium,4,YlvUbMLU90,pool34
1,right,1,1.5671,ST,medium,5,YlvUbMLU90,pool34
1,left,0,3.271,ST,medium,6,YlvUbMLU90,pool34
1,right,1,1.4504,ST,medium,7,YlvUbMLU90,pool34
1,left,0,1.7208,ST,medium,8,YlvUbMLU90,pool34
1,right,1,1.205,ST,medium,9,YlvUbMLU90,pool34
1,left,0,1.1551,ST,medium,10,YlvUbMLU90,pool34
1,right,1,1.1505,ST,medium,11,YlvUbMLU90,pool34
0,left,1,1.0671,ST,medium,12,YlvUbMLU90,pool34
1,right,1,1.1668,ST,medium,13,YlvUbMLU90,pool34
1,right,1,1.0565,ST,medium,14,YlvUbMLU90,pool34
1,right,1,0.8901,ST,medium,15,YlvUbMLU90,pool34
1,right,1,0.9671,ST,medium,16,YlvUbMLU90,pool34
0,left,1,2.263,ST,easy,1,WQyxRdU13t,pool34
1,right,1,2.589,ST,easy,2,WQyxRdU13t,pool34
0,left,1,1.684,ST,easy,3,WQyxRdU13t,pool34
1,right,1,1.914,ST,easy,4,WQyxRdU13t,pool34
1,right,1,2.03,ST,easy,5,WQyxRdU13t,pool34
1,right,1,1.397,ST,easy,6,WQyxRdU13t,pool34
1,right,1,1.847,ST,easy,7,WQyxRdU13t,pool34
0,left,1,1.469,ST,easy,8,WQyxRdU13t,pool34
1,right,1,1.667,ST,easy,9,WQyxRdU13t,pool34
1,right,1,1.702,ST,easy,10,WQyxRdU13t,pool34
0,left,1,3.637,ST,easy,11,WQyxRdU13t,pool34
1,right,1,1.691,ST,easy,12,WQyxRdU13t,pool34
0,left,1,1.665,ST,easy,13,WQyxRdU13t,pool34
0,left,1,1.387,ST,easy,14,WQyxRdU13t,pool34
0,left,1,1.161,ST,easy,15,WQyxRdU13t,pool34
0,left,1,1.393,ST,easy,16,WQyxRdU13t,pool34
1,right,1,2.791,ST,hard,1,WQyxRdU13t,pool34
0,left,1,1.335,ST,hard,2,WQyxRdU13t,pool34
1,right,1,1.7,ST,hard,3,WQyxRdU13t,pool34
1,left,0,1.416,ST,hard,4,WQyxRdU13t,pool34
0,left,1,1.171,ST,hard,5,WQyxRdU13t,pool34
1,left,0,1.354,ST,hard,6,WQyxRdU13t,pool34
0,left,1,2.596,ST,hard,7,WQyxRdU13t,pool34
0,left,1,2.018,ST,hard,8,WQyxRdU13t,pool34
0,left,1,1.249,ST,hard,9,WQyxRdU13t,pool34
1,left,0,1.284,ST,hard,10,WQyxRdU13t,pool34
1,right,1,1.233,ST,hard,11,WQyxRdU13t,pool34
0,left,1,1.216,ST,hard,12,WQyxRdU13t,pool34
0,left,1,1.454,ST,hard,13,WQyxRdU13t,pool34
1,left,0,1.167,ST,hard,14,WQyxRdU13t,pool34
0,left,1,1.155,ST,hard,15,WQyxRdU13t,pool34
0,right,0,1.172,ST,hard,16,WQyxRdU13t,pool34
1,right,1,1.6,ST,medium,1,WQyxRdU13t,pool34
0,left,1,1.054,ST,medium,2,WQyxRdU13t,pool34
1,right,1,1.926,ST,medium,3,WQyxRdU13t,pool34
0,left,1,0.955,ST,medium,4,WQyxRdU13t,pool34
0,left,1,0.99,ST,medium,5,WQyxRdU13t,pool34
1,right,1,0.971,ST,medium,6,WQyxRdU13t,pool34
1,right,1,0.899,ST,medium,7,WQyxRdU13t,pool34
0,left,1,2.652,ST,medium,8,WQyxRdU13t,pool34
0,left,1,0.835,ST,medium,9,WQyxRdU13t,pool34
0,left,1,0.837,ST,medium,10,WQyxRdU13t,pool34
1,right,1,1.095,ST,medium,11,WQyxRdU13t,pool34
1,left,0,0.796,ST,medium,12,WQyxRdU13t,pool34
0,left,1,0.895,ST,medium,13,WQyxRdU13t,pool34
0,left,1,0.641,ST,medium,14,WQyxRdU13t,pool34
0,left,1,0.88,ST,medium,15,WQyxRdU13t,pool34
0,left,1,2.119,ST,medium,16,WQyxRdU13t,pool34
1,right,1,1.42,ST,easy,1,u8oFh0ZHHs,pool34
0,left,1,0.8687,ST,easy,2,u8oFh0ZHHs,pool34
0,left,1,0.7678,ST,easy,3,u8oFh0ZHHs,pool34
1,right,1,0.8035,ST,easy,4,u8oFh0ZHHs,pool34
0,left,1,0.7763,ST,easy,5,u8oFh0ZHHs,pool34
0,left,1,0.7201,ST,easy,6,u8oFh0ZHHs,pool34
1,right,1,0.6178,ST,easy,7,u8oFh0ZHHs,pool34
0,left,1,0.6718,ST,easy,8,u8oFh0ZHHs,pool34
1,right,1,0.8881,ST,easy,9,u8oFh0ZHHs,pool34
0,left,1,0.7444,ST,easy,10,u8oFh0ZHHs,pool34
0,left,1,0.7008,ST,easy,11,u8oFh0ZHHs,pool34
0,left,1,0.5885,ST,easy,12,u8oFh0ZHHs,pool34
0,left,1,0.6832,ST,easy,13,u8oFh0ZHHs,pool34
1,right,1,0.6609,ST,easy,14,u8oFh0ZHHs,pool34
0,left,1,0.8834,ST,easy,15,u8oFh0ZHHs,pool34
0,left,1,0.8145,ST,easy,16,u8oFh0ZHHs,pool34
0,right,0,1.9633,ST,hard,1,u8oFh0ZHHs,pool34
1,right,1,1.8533,ST,hard,2,u8oFh0ZHHs,pool34
0,left,1,2.067,ST,hard,3,u8oFh0ZHHs,pool34
0,left,1,3.6354,ST,hard,4,u8oFh0ZHHs,pool34
1,right,1,3.038,ST,hard,5,u8oFh0ZHHs,pool34
1,right,1,1.5003,ST,hard,6,u8oFh0ZHHs,pool34
0,left,1,4.0581,ST,hard,7,u8oFh0ZHHs,pool34
1,right,1,2.3505,ST,hard,8,u8oFh0ZHHs,pool34
0,left,1,3.4487,ST,hard,9,u8oFh0ZHHs,pool34
1,right,1,1.8659,ST,hard,10,u8oFh0ZHHs,pool34
0,left,1,3.5288,ST,hard,11,u8oFh0ZHHs,pool34
1,right,1,1.8638,ST,hard,12,u8oFh0ZHHs,pool34
1,left,0,2.4726,ST,hard,13,u8oFh0ZHHs,pool34
0,left,1,2.8384,ST,hard,14,u8oFh0ZHHs,pool34
1,right,1,1.671,ST,hard,15,u8oFh0ZHHs,pool34
1,right,1,1.641,ST,hard,16,u8oFh0ZHHs,pool34
0,left,1,2.0009,ST,medium,1,u8oFh0ZHHs,pool34
0,left,1,2.182,ST,medium,2,u8oFh0ZHHs,pool34
0,left,1,2.5836,ST,medium,3,u8oFh0ZHHs,pool34
1,right,1,1.8461,ST,medium,4,u8oFh0ZHHs,pool34
1,right,1,1.7837,ST,medium,5,u8oFh0ZHHs,pool34
1,right,1,1.4469,ST,medium,6,u8oFh0ZHHs,pool34
1,right,1,1.0606,ST,medium,7,u8oFh0ZHHs,pool34
1,right,1,4.0251,ST,medium,8,u8oFh0ZHHs,pool34
0,left,1,2.0505,ST,medium,9,u8oFh0ZHHs,pool34
0,left,1,2.4023,ST,medium,10,u8oFh0ZHHs,pool34
0,left,1,2.1559,ST,medium,11,u8oFh0ZHHs,pool34
1,right,1,1.0689,ST,medium,12,u8oFh0ZHHs,pool34
1,right,1,2.0794,ST,medium,13,u8oFh0ZHHs,pool34
0,left,1,2.6028,ST,medium,14,u8oFh0ZHHs,pool34
1,right,1,1.5212,ST,medium,15,u8oFh0ZHHs,pool34
0,left,1,2.0737,ST,medium,16,u8oFh0ZHHs,pool34
1,right,1,1.3514,ST,easy,1,lO4tI9SjJX,pool34
1,right,1,1.0351,ST,easy,2,lO4tI9SjJX,pool34
1,right,1,1.0666,ST,easy,3,lO4tI9SjJX,pool34
1,right,1,1.1375,ST,easy,4,lO4tI9SjJX,pool34
0,left,1,1.4674,ST,easy,5,lO4tI9SjJX,pool34
0,left,1,1.2349,ST,easy,6,lO4tI9SjJX,pool34
1,right,1,1.0518,ST,easy,7,lO4tI9SjJX,pool34
0,left,1,1.2704,ST,easy,8,lO4tI9SjJX,pool34
1,right,1,1.1191,ST,easy,9,lO4tI9SjJX,pool34
1,right,1,1.0354,ST,easy,10,lO4tI9SjJX,pool34
1,right,1,1.001,ST,easy,11,lO4tI9SjJX,pool34
1,right,1,1.0012,ST,easy,12,lO4tI9SjJX,pool34
0,left,1,1.3174,ST,easy,13,lO4tI9SjJX,pool34
0,left,1,1.1343,ST,easy,14,lO4tI9SjJX,pool34
1,right,1,0.9858,ST,easy,15,lO4tI9SjJX,pool34
0,left,1,1.0683,ST,easy,16,lO4tI9SjJX,pool34
0,left,1,1.555,ST,hard,1,lO4tI9SjJX,pool34
1,left,0,2.0357,ST,hard,2,lO4tI9SjJX,pool34
0,left,1,1.5051,ST,hard,3,lO4tI9SjJX,pool34
1,right,1,1.2014,ST,hard,4,lO4tI9SjJX,pool34
1,right,1,1.2181,ST,hard,5,lO4tI9SjJX,pool34
1,left,0,3.5872,ST,hard,6,lO4tI9SjJX,pool34
1,right,1,1.1015,ST,hard,7,lO4tI9SjJX,pool34
0,right,0,1.1016,ST,hard,8,lO4tI9SjJX,pool34
1,right,1,1.2505,ST,hard,9,lO4tI9SjJX,pool34
0,left,1,2.1852,ST,hard,10,lO4tI9SjJX,pool34
0,left,1,1.9843,ST,hard,11,lO4tI9SjJX,pool34
1,right,1,1.1179,ST,hard,12,lO4tI9SjJX,pool34
0,left,1,2.1349,ST,hard,13,lO4tI9SjJX,pool34
1,left,0,3.4011,ST,hard,14,lO4tI9SjJX,pool34
1,right,1,2.0385,ST,hard,15,lO4tI9SjJX,pool34
1,left,0,1.3532,ST,hard,16,lO4tI9SjJX,pool34
1,right,1,2.8383,ST,medium,1,lO4tI9SjJX,pool34
0,right,0,2.3198,ST,medium,2,lO4tI9SjJX,pool34
1,right,1,2.2169,ST,medium,3,lO4tI9SjJX,pool34
1,left,0,1.8224,ST,medium,4,lO4tI9SjJX,pool34
1,right,1,1.4512,ST,medium,5,lO4tI9SjJX,pool34
0,left,1,1.9345,ST,medium,6,lO4tI9SjJX,pool34
1,right,1,1.606,ST,medium,7,lO4tI9SjJX,pool34
0,left,1,2.1192,ST,medium,8,lO4tI9SjJX,pool34
1,left,0,2.5282,ST,medium,9,lO4tI9SjJX,pool34
0,left,1,1.369,ST,medium,10,lO4tI9SjJX,pool34
1,right,1,1.2052,ST,medium,11,lO4tI9SjJX,pool34
0,left,1,2.3537,ST,medium,12,lO4tI9SjJX,pool34
0,left,1,1.6342,ST,medium,13,lO4tI9SjJX,pool34
1,right,1,1.8343,ST,medium,14,lO4tI9SjJX,pool34
1,right,1,1.1507,ST,medium,15,lO4tI9SjJX,pool34
1,right,1,1.1724,ST,medium,16,lO4tI9SjJX,pool34
1,right,1,0.994,ST,easy,1,5oMH7YJKDi,pool34
0,left,1,0.983,ST,easy,2,5oMH7YJKDi,pool34
1,right,1,0.914,ST,easy,3,5oMH7YJKDi,pool34
0,left,1,0.787,ST,easy,4,5oMH7YJKDi,pool34
1,right,1,0.878,ST,easy,5,5oMH7YJKDi,pool34
1,right,1,0.848,ST,easy,6,5oMH7YJKDi,pool34
1,right,1,1.231,ST,easy,7,5oMH7YJKDi,pool34
1,right,1,1.097,ST,easy,8,5oMH7YJKDi,pool34
1,right,1,0.96,ST,easy,9,5oMH7YJKDi,pool34
0,left,1,0.995,ST,easy,10,5oMH7YJKDi,pool34
1,right,1,1.478,ST,easy,11,5oMH7YJKDi,pool34
1,right,1,0.849,ST,easy,12,5oMH7YJKDi,pool34
0,left,1,1.634,ST,easy,13,5oMH7YJKDi,pool34
0,left,1,1.599,ST,easy,14,5oMH7YJKDi,pool34
1,right,1,1.648,ST,easy,15,5oMH7YJKDi,pool34
1,right,1,0.829,ST,easy,16,5oMH7YJKDi,pool34
0,left,1,1.225,ST,hard,1,5oMH7YJKDi,pool34
0,left,1,0.831,ST,hard,2,5oMH7YJKDi,pool34
0,left,1,0.978,ST,hard,3,5oMH7YJKDi,pool34
1,right,1,1.207,ST,hard,4,5oMH7YJKDi,pool34
0,left,1,1.262,ST,hard,5,5oMH7YJKDi,pool34
0,left,1,1.031,ST,hard,6,5oMH7YJKDi,pool34
1,left,0,1.528,ST,hard,7,5oMH7YJKDi,pool34
1,right,1,0.836,ST,hard,8,5oMH7YJKDi,pool34
1,right,1,1.261,ST,hard,9,5oMH7YJKDi,pool34
1,right,1,1.55,ST,hard,10,5oMH7YJKDi,pool34
1,right,1,1.459,ST,hard,11,5oMH7YJKDi,pool34
1,right,1,1.414,ST,hard,12,5oMH7YJKDi,pool34
0,left,1,0.912,ST,hard,13,5oMH7YJKDi,pool34
1,right,1,1.113,ST,hard,14,5oMH7YJKDi,pool34
0,left,1,0.813,ST,hard,15,5oMH7YJKDi,pool34
1,right,1,0.995,ST,hard,16,5oMH7YJKDi,pool34
1,right,1,1.207,ST,medium,1,5oMH7YJKDi,pool34
1,right,1,1.745,ST,medium,2,5oMH7YJKDi,pool34
1,right,1,1.498,ST,medium,3,5oMH7YJKDi,pool34
0,left,1,1.15,ST,medium,4,5oMH7YJKDi,pool34
0,left,1,1.441,ST,medium,5,5oMH7YJKDi,pool34
0,left,1,0.875,ST,medium,6,5oMH7YJKDi,pool34
0,left,1,1.189,ST,medium,7,5oMH7YJKDi,pool34
1,right,1,1.295,ST,medium,8,5oMH7YJKDi,pool34
1,right,1,1.48,ST,medium,9,5oMH7YJKDi,pool34
0,right,0,0.868,ST,medium,10,5oMH7YJKDi,pool34
1,left,0,1.644,ST,medium,11,5oMH7YJKDi,pool34
1,right,1,0.846,ST,medium,12,5oMH7YJKDi,pool34
1,right,1,1.746,ST,medium,13,5oMH7YJKDi,pool34
0,left,1,1.287,ST,medium,14,5oMH7YJKDi,pool34
0,left,1,0.895,ST,medium,15,5oMH7YJKDi,pool34
1,right,1,1.163,ST,medium,16,5oMH7YJKDi,pool34
0,left,1,1.4622,ST,easy,1,wBsXFrRWgF,pool34
1,right,1,1.4817,ST,easy,2,wBsXFrRWgF,pool34
0,left,1,1.1075,ST,easy,3,wBsXFrRWgF,pool34
0,left,1,0.7344,ST,easy,4,wBsXFrRWgF,pool34
0,left,1,0.6157,ST,easy,5,wBsXFrRWgF,pool34
0,left,1,2.5649,ST,easy,6,wBsXFrRWgF,pool34
1,right,1,0.8505,ST,easy,7,wBsXFrRWgF,pool34
1,right,1,1.9274,ST,easy,8,wBsXFrRWgF,pool34
1,right,1,1.5165,ST,easy,9,wBsXFrRWgF,pool34
0,left,1,0.8156,ST,easy,10,wBsXFrRWgF,pool34
1,right,1,1.2175,ST,easy,11,wBsXFrRWgF,pool34
1,right,1,1.2372,ST,easy,12,wBsXFrRWgF,pool34
1,right,1,0.9257,ST,easy,13,wBsXFrRWgF,pool34
0,left,1,0.9659,ST,easy,14,wBsXFrRWgF,pool34
1,right,1,0.8829,ST,easy,15,wBsXFrRWgF,pool34
1,right,1,0.932,ST,easy,16,wBsXFrRWgF,pool34
1,left,0,1.2093,ST,hard,1,wBsXFrRWgF,pool34
1,right,1,0.9013,ST,hard,2,wBsXFrRWgF,pool34
0,left,1,0.8233,ST,hard,3,wBsXFrRWgF,pool34
0,right,0,0.7676,ST,hard,4,wBsXFrRWgF,pool34
1,left,0,0.9031,ST,hard,5,wBsXFrRWgF,pool34
1,left,0,0.9053,ST,hard,6,wBsXFrRWgF,pool34
0,right,0,0.8074,ST,hard,7,wBsXFrRWgF,pool34
1,right,1,0.8173,ST,hard,8,wBsXFrRWgF,pool34
1,right,1,0.9395,ST,hard,9,wBsXFrRWgF,pool34
0,left,1,0.721,ST,hard,10,wBsXFrRWgF,pool34
1,right,1,0.5831,ST,hard,11,wBsXFrRWgF,pool34
1,right,1,1.0085,ST,hard,12,wBsXFrRWgF,pool34
1,left,0,1.4166,ST,hard,13,wBsXFrRWgF,pool34
0,right,0,0.6886,ST,hard,14,wBsXFrRWgF,pool34
1,right,1,1.0331,ST,hard,15,wBsXFrRWgF,pool34
1,right,1,0.5842,ST,hard,16,wBsXFrRWgF,pool34
0,left,1,3.2178,ST,medium,1,wBsXFrRWgF,pool34
1,right,1,1.1555,ST,medium,2,wBsXFrRWgF,pool34
1,right,1,1.568,ST,medium,3,wBsXFrRWgF,pool34
1,right,1,1.0425,ST,medium,4,wBsXFrRWgF,pool34
1,right,1,0.7769,ST,medium,5,wBsXFrRWgF,pool34
1,right,1,0.9662,ST,medium,6,wBsXFrRWgF,pool34
1,left,0,0.7981,ST,medium,7,wBsXFrRWgF,pool34
1,left,0,1.3284,ST,medium,8,wBsXFrRWgF,pool34
1,left,0,1.0164,ST,medium,9,wBsXFrRWgF,pool34
1,right,1,0.9985,ST,medium,10,wBsXFrRWgF,pool34
1,right,1,0.6783,ST,medium,11,wBsXFrRWgF,pool34
1,right,1,0.9004,ST,medium,12,wBsXFrRWgF,pool34
1,left,0,1.0503,ST,medium,13,wBsXFrRWgF,pool34
0,left,1,0.8009,ST,medium,14,wBsXFrRWgF,pool34
0,left,1,0.882,ST,medium,15,wBsXFrRWgF,pool34
0,left,1,0.717,ST,medium,16,wBsXFrRWgF,pool34
0,left,1,1.3917,ST,easy,1,PkgTbVVI07,pool34
1,right,1,0.9892,ST,easy,2,PkgTbVVI07,pool34
0,left,1,0.9503,ST,easy,3,PkgTbVVI07,pool34
1,right,1,0.767,ST,easy,4,PkgTbVVI07,pool34
0,left,1,1.0513,ST,easy,5,PkgTbVVI07,pool34
1,right,1,0.751,ST,easy,6,PkgTbVVI07,pool34
0,left,1,0.8341,ST,easy,7,PkgTbVVI07,pool34
0,left,1,0.8555,ST,easy,8,PkgTbVVI07,pool34
1,right,1,0.6728,ST,easy,9,PkgTbVVI07,pool34
1,right,1,0.7834,ST,easy,10,PkgTbVVI07,pool34
1,right,1,0.8437,ST,easy,11,PkgTbVVI07,pool34
0,left,1,1.0614,ST,easy,12,PkgTbVVI07,pool34
1,right,1,0.5546,ST,easy,13,PkgTbVVI07,pool34
1,right,1,0.6563,ST,easy,14,PkgTbVVI07,pool34
1,right,1,0.6684,ST,easy,15,PkgTbVVI07,pool34
0,left,1,1.0661,ST,easy,16,PkgTbVVI07,pool34
1,right,1,1.2401,ST,hard,1,PkgTbVVI07,pool34
0,left,1,1.0836,ST,hard,2,PkgTbVVI07,pool34
0,left,1,1.0367,ST,hard,3,PkgTbVVI07,pool34
0,right,0,1.2208,ST,hard,4,PkgTbVVI07,pool34
1,right,1,0.9293,ST,hard,5,PkgTbVVI07,pool34
1,right,1,0.5519,ST,hard,6,PkgTbVVI07,pool34
1,right,1,0.6097,ST,hard,7,PkgTbVVI07,pool34
1,right,1,0.6141,ST,hard,8,PkgTbVVI07,pool34
1,left,0,1.6345,ST,hard,9,PkgTbVVI07,pool34
1,right,1,0.4365,ST,hard,10,PkgTbVVI07,pool34
1,right,1,0.4616,ST,hard,11,PkgTbVVI07,pool34
0,left,1,0.9024,ST,hard,12,PkgTbVVI07,pool34
1,left,0,1.2321,ST,hard,13,PkgTbVVI07,pool34
0,right,0,0.6508,ST,hard,14,PkgTbVVI07,pool34
1,right,1,0.5763,ST,hard,15,PkgTbVVI07,pool34
0,right,0,0.5332,ST,hard,16,PkgTbVVI07,pool34
1,right,1,0.6064,ST,medium,1,PkgTbVVI07,pool34
1,right,1,0.5946,ST,medium,2,PkgTbVVI07,pool34
0,left,1,0.8982,ST,medium,3,PkgTbVVI07,pool34
0,left,1,1.0172,ST,medium,4,PkgTbVVI07,pool34
1,right,1,0.5934,ST,medium,5,PkgTbVVI07,pool34
0,left,1,0.9348,ST,medium,6,PkgTbVVI07,pool34
1,right,1,0.6327,ST,medium,7,PkgTbVVI07,pool34
1,right,1,0.644,ST,medium,8,PkgTbVVI07,pool34
1,right,1,0.8612,ST,medium,9,PkgTbVVI07,pool34
1,right,1,0.7658,ST,medium,10,PkgTbVVI07,pool34
0,left,1,0.8929,ST,medium,11,PkgTbVVI07,pool34
0,left,1,0.8178,ST,medium,12,PkgTbVVI07,pool34
1,right,1,0.4713,ST,medium,13,PkgTbVVI07,pool34
0,left,1,0.8531,ST,medium,14,PkgTbVVI07,pool34
1,right,1,0.5838,ST,medium,15,PkgTbVVI07,pool34
1,left,0,1.3031,ST,medium,16,PkgTbVVI07,pool34
1,right,1,1.7661,ST,easy,1,0wY7q7AFDw,pool34
1,right,1,0.4802,ST,easy,2,0wY7q7AFDw,pool34
1,right,1,0.5766,ST,easy,3,0wY7q7AFDw,pool34
0,left,1,0.6799,ST,easy,4,0wY7q7AFDw,pool34
0,left,1,1.6578,ST,easy,5,0wY7q7AFDw,pool34
1,right,1,0.8024,ST,easy,6,0wY7q7AFDw,pool34
0,left,1,0.6872,ST,easy,7,0wY7q7AFDw,pool34
1,right,1,0.4271,ST,easy,8,0wY7q7AFDw,pool34
1,right,1,0.5096,ST,easy,9,0wY7q7AFDw,pool34
1,right,1,1.016,ST,easy,10,0wY7q7AFDw,pool34
0,left,1,0.6829,ST,easy,11,0wY7q7AFDw,pool34
0,left,1,0.6557,ST,easy,12,0wY7q7AFDw,pool34
0,left,1,1.0946,ST,easy,13,0wY7q7AFDw,pool34
0,left,1,0.5152,ST,easy,14,0wY7q7AFDw,pool34
1,right,1,0.9185,ST,easy,15,0wY7q7AFDw,pool34
1,right,1,0.7355,ST,easy,16,0wY7q7AFDw,pool34
1,right,1,11.1719,ST,hard,1,0wY7q7AFDw,pool34
0,left,1,2.0284,ST,hard,2,0wY7q7AFDw,pool34
0,left,1,0.9901,ST,hard,3,0wY7q7AFDw,pool34
0,left,1,1.1143,ST,hard,4,0wY7q7AFDw,pool34
1,left,0,1.0276,ST,hard,5,0wY7q7AFDw,pool34
0,right,0,1.1754,ST,hard,6,0wY7q7AFDw,pool34
1,left,0,0.8444,ST,hard,7,0wY7q7AFDw,pool34
0,right,0,0.6175,ST,hard,8,0wY7q7AFDw,pool34
0,right,0,3.8967,ST,hard,9,0wY7q7AFDw,pool34
1,right,1,0.84,ST,hard,10,0wY7q7AFDw,pool34
0,left,1,0.9066,ST,hard,11,0wY7q7AFDw,pool34
1,left,0,0.8406,ST,hard,12,0wY7q7AFDw,pool34
1,right,1,0.6404,ST,hard,13,0wY7q7AFDw,pool34
0,left,1,1.042,ST,hard,14,0wY7q7AFDw,pool34
0,right,0,0.7005,ST,hard,15,0wY7q7AFDw,pool34
0,left,1,0.8947,ST,hard,16,0wY7q7AFDw,pool34
0,left,1,1.1082,ST,medium,1,0wY7q7AFDw,pool34
0,left,1,0.6729,ST,medium,2,0wY7q7AFDw,pool34
0,right,0,2.0831,ST,medium,3,0wY7q7AFDw,pool34
0,left,1,0.6695,ST,medium,4,0wY7q7AFDw,pool34
0,left,1,0.7024,ST,medium,5,0wY7q7AFDw,pool34
1,right,1,0.8558,ST,medium,6,0wY7q7AFDw,pool34
0,right,0,0.9414,ST,medium,7,0wY7q7AFDw,pool34
0,left,1,0.9457,ST,medium,8,0wY7q7AFDw,pool34
0,left,1,1.9852,ST,medium,9,0wY7q7AFDw,pool34
1,right,1,0.7994,ST,medium,10,0wY7q7AFDw,pool34
1,right,1,0.6173,ST,medium,11,0wY7q7AFDw,pool34
1,right,1,2.3186,ST,medium,12,0wY7q7AFDw,pool34
0,left,1,0.7122,ST,medium,13,0wY7q7AFDw,pool34
1,left,0,0.7346,ST,medium,14,0wY7q7AFDw,pool34
0,left,1,0.6881,ST,medium,15,0wY7q7AFDw,pool34
1,right,1,0.6152,ST,medium,16,0wY7q7AFDw,pool34
0,left,1,1.8996,ST,easy,1,woSzLv5BIV,pool34
0,left,1,1.1842,ST,easy,2,woSzLv5BIV,pool34
1,right,1,1.7341,ST,easy,3,woSzLv5BIV,pool34
1,right,1,1.5007,ST,easy,4,woSzLv5BIV,pool34
0,left,1,0.8842,ST,easy,5,woSzLv5BIV,pool34
0,left,1,0.7007,ST,easy,6,woSzLv5BIV,pool34
0,left,1,1.4841,ST,easy,7,woSzLv5BIV,pool34
0,left,1,0.6508,ST,easy,8,woSzLv5BIV,pool34
0,left,1,0.6507,ST,easy,9,woSzLv5BIV,pool34
1,right,1,1.1172,ST,easy,10,woSzLv5BIV,pool34
0,left,1,0.6175,ST,easy,11,woSzLv5BIV,pool34
0,left,1,0.5841,ST,easy,12,woSzLv5BIV,pool34
0,left,1,0.5843,ST,easy,13,woSzLv5BIV,pool34
1,left,0,0.7006,ST,easy,14,woSzLv5BIV,pool34
0,left,1,0.5503,ST,easy,15,woSzLv5BIV,pool34
1,right,1,1.2009,ST,easy,16,woSzLv5BIV,pool34
1,left,0,6.4812,ST,hard,1,woSzLv5BIV,pool34
1,left,0,2.2544,ST,hard,2,woSzLv5BIV,pool34
1,right,1,1.7334,ST,hard,3,woSzLv5BIV,pool34
1,right,1,1.4718,ST,hard,4,woSzLv5BIV,pool34
1,right,1,1.0835,ST,hard,5,woSzLv5BIV,pool34
1,right,1,1.1169,ST,hard,6,woSzLv5BIV,pool34
1,left,0,1.3169,ST,hard,7,woSzLv5BIV,pool34
1,right,1,0.917,ST,hard,8,woSzLv5BIV,pool34
1,right,1,1.1874,ST,hard,9,woSzLv5BIV,pool34
0,right,0,1.1175,ST,hard,10,woSzLv5BIV,pool34
1,right,1,0.9726,ST,hard,11,woSzLv5BIV,pool34
0,left,1,1.3003,ST,hard,12,woSzLv5BIV,pool34
0,left,1,1.0006,ST,hard,13,woSzLv5BIV,pool34
1,left,0,1.253,ST,hard,14,woSzLv5BIV,pool34
0,left,1,1.0058,ST,hard,15,woSzLv5BIV,pool34
0,right,0,1.137,ST,hard,16,woSzLv5BIV,pool34
0,left,1,1.9869,ST,medium,1,woSzLv5BIV,pool34
1,right,1,1.2713,ST,medium,2,woSzLv5BIV,pool34
1,left,0,1.817,ST,medium,3,woSzLv5BIV,pool34
1,right,1,1.1057,ST,medium,4,woSzLv5BIV,pool34
0,left,1,1.5169,ST,medium,5,woSzLv5BIV,pool34
0,right,0,1.0717,ST,medium,6,woSzLv5BIV,pool34
0,left,1,1.3056,ST,medium,7,woSzLv5BIV,pool34
0,right,0,0.9682,ST,medium,8,woSzLv5BIV,pool34
1,right,1,0.8544,ST,medium,9,woSzLv5BIV,pool34
1,right,1,0.9036,ST,medium,10,woSzLv5BIV,pool34
0,left,1,1.617,ST,medium,11,woSzLv5BIV,pool34
1,left,0,0.8669,ST,medium,12,woSzLv5BIV,pool34
0,left,1,1.9837,ST,medium,13,woSzLv5BIV,pool34
1,right,1,1.2205,ST,medium,14,woSzLv5BIV,pool34
0,right,0,1.1503,ST,medium,15,woSzLv5BIV,pool34
0,left,1,0.8886,ST,medium,16,woSzLv5BIV,pool34
1,right,1,1.4297,ST,easy,1,O0ngZJhb9l,pool34
0,left,1,1.0673,ST,easy,2,O0ngZJhb9l,pool34
0,left,1,0.7731,ST,easy,3,O0ngZJhb9l,pool34
0,left,1,1.0973,ST,easy,4,O0ngZJhb9l,pool34
0,left,1,0.6619,ST,easy,5,O0ngZJhb9l,pool34
1,left,0,1.6153,ST,easy,6,O0ngZJhb9l,pool34
0,left,1,0.7531,ST,easy,7,O0ngZJhb9l,pool34
0,left,1,0.5956,ST,easy,8,O0ngZJhb9l,pool34
0,left,1,0.6842,ST,easy,9,O0ngZJhb9l,pool34
1,right,1,0.7119,ST,easy,10,O0ngZJhb9l,pool34
1,right,1,2.057,ST,easy,11,O0ngZJhb9l,pool34
0,left,1,0.6727,ST,easy,12,O0ngZJhb9l,pool34
1,right,1,1.1318,ST,easy,13,O0ngZJhb9l,pool34
0,left,1,0.6578,ST,easy,14,O0ngZJhb9l,pool34
0,left,1,0.5506,ST,easy,15,O0ngZJhb9l,pool34
0,left,1,0.691,ST,easy,16,O0ngZJhb9l,pool34
0,left,1,4.9024,ST,hard,1,O0ngZJhb9l,pool34
1,right,1,6.3603,ST,hard,2,O0ngZJhb9l,pool34
0,left,1,4.0394,ST,hard,3,O0ngZJhb9l,pool34
0,left,1,1.7848,ST,hard,4,O0ngZJhb9l,pool34
0,left,1,4.1408,ST,hard,5,O0ngZJhb9l,pool34
0,right,0,5.9152,ST,hard,6,O0ngZJhb9l,pool34
1,right,1,0.841,ST,hard,7,O0ngZJhb9l,pool34
0,left,1,1.7348,ST,hard,8,O0ngZJhb9l,pool34
1,right,1,4.6376,ST,hard,9,O0ngZJhb9l,pool34
1,right,1,4.0378,ST,hard,10,O0ngZJhb9l,pool34
0,left,1,4.8895,ST,hard,11,O0ngZJhb9l,pool34
0,right,0,1.1034,ST,hard,12,O0ngZJhb9l,pool34
1,left,0,7.7901,ST,hard,13,O0ngZJhb9l,pool34
0,left,1,4.5282,ST,hard,14,O0ngZJhb9l,pool34
0,left,1,4.83,ST,hard,15,O0ngZJhb9l,pool34
1,right,1,4.5746,ST,hard,16,O0ngZJhb9l,pool34
0,left,1,1.0471,ST,medium,1,O0ngZJhb9l,pool34
1,left,0,1.5217,ST,medium,2,O0ngZJhb9l,pool34
1,right,1,0.7897,ST,medium,3,O0ngZJhb9l,pool34
0,left,1,0.8719,ST,medium,4,O0ngZJhb9l,pool34
0,right,0,3.3246000000000002,ST,medium,5,O0ngZJhb9l,pool34
1,right,1,1.9488,ST,medium,6,O0ngZJhb9l,pool34
0,left,1,0.7211,ST,medium,7,O0ngZJhb9l,pool34
0,left,1,1.1512,ST,medium,8,O0ngZJhb9l,pool34
1,right,1,0.8892,ST,medium,9,O0ngZJhb9l,pool34
0,left,1,1.5984,ST,medium,10,O0ngZJhb9l,pool34
1,right,1,1.2538,ST,medium,11,O0ngZJhb9l,pool34
1,right,1,1.1853,ST,medium,12,O0ngZJhb9l,pool34
0,left,1,0.7817,ST,medium,13,O0ngZJhb9l,pool34
1,right,1,1.3687,ST,medium,14,O0ngZJhb9l,pool34
0,left,1,0.7953,ST,medium,15,O0ngZJhb9l,pool34
1,right,1,1.0774,ST,medium,16,O0ngZJhb9l,pool34
0,left,1,3.5431,ST,easy,1,ttxEdLIMGM,pool34
0,left,1,5.4058,ST,easy,2,ttxEdLIMGM,pool34
1,right,1,1.3873,ST,easy,3,ttxEdLIMGM,pool34
1,right,1,2.7483,ST,easy,4,ttxEdLIMGM,pool34
1,right,1,2.763,ST,easy,5,ttxEdLIMGM,pool34
1,right,1,1.6788,ST,easy,6,ttxEdLIMGM,pool34
1,right,1,2.2766,ST,easy,7,ttxEdLIMGM,pool34
0,left,1,1.2362,ST,easy,8,ttxEdLIMGM,pool34
0,left,1,2.2544,ST,easy,9,ttxEdLIMGM,pool34
1,right,1,1.2072,ST,easy,10,ttxEdLIMGM,pool34
0,left,1,1.3144,ST,easy,11,ttxEdLIMGM,pool34
1,right,1,3.3091,ST,easy,12,ttxEdLIMGM,pool34
1,right,1,1.3278,ST,easy,13,ttxEdLIMGM,pool34
0,left,1,1.2758,ST,easy,14,ttxEdLIMGM,pool34
0,left,1,1.4895,ST,easy,15,ttxEdLIMGM,pool34
0,left,1,1.2176,ST,easy,16,ttxEdLIMGM,pool34
1,right,1,11.3407,ST,hard,1,ttxEdLIMGM,pool34
1,right,1,8.672,ST,hard,2,ttxEdLIMGM,pool34
1,right,1,7.4538,ST,hard,3,ttxEdLIMGM,pool34
1,right,1,4.6692,ST,hard,4,ttxEdLIMGM,pool34
1,right,1,3.0065,ST,hard,5,ttxEdLIMGM,pool34
1,right,1,3.2121,ST,hard,6,ttxEdLIMGM,pool34
1,right,1,3.6543,ST,hard,7,ttxEdLIMGM,pool34
0,left,1,5.2483,ST,hard,8,ttxEdLIMGM,pool34
1,right,1,1.8331,ST,hard,9,ttxEdLIMGM,pool34
0,left,1,3.2982,ST,hard,10,ttxEdLIMGM,pool34
0,left,1,2.7552,ST,hard,11,ttxEdLIMGM,pool34
1,right,1,3.6875,ST,hard,12,ttxEdLIMGM,pool34
0,right,0,5.5057,ST,hard,13,ttxEdLIMGM,pool34
1,right,1,2.0812,ST,hard,14,ttxEdLIMGM,pool34
1,right,1,3.773,ST,hard,15,ttxEdLIMGM,pool34
1,left,0,4.4342,ST,hard,16,ttxEdLIMGM,pool34
0,right,0,4.2028,ST,medium,1,ttxEdLIMGM,pool34
0,left,1,2.5179,ST,medium,2,ttxEdLIMGM,pool34
0,left,1,3.8443,ST,medium,3,ttxEdLIMGM,pool34
0,left,1,5.5186,ST,medium,4,ttxEdLIMGM,pool34
1,right,1,2.9516,ST,medium,5,ttxEdLIMGM,pool34
1,right,1,3.1515,ST,medium,6,ttxEdLIMGM,pool34
0,left,1,2.1324,ST,medium,7,ttxEdLIMGM,pool34
0,left,1,1.8287,ST,medium,8,ttxEdLIMGM,pool34
1,right,1,2.66,ST,medium,9,ttxEdLIMGM,pool34
0,left,1,1.5645,ST,medium,10,ttxEdLIMGM,pool34
1,left,0,2.3301,ST,medium,11,ttxEdLIMGM,pool34
0,left,1,2.1781,ST,medium,12,ttxEdLIMGM,pool34
1,right,1,2.9535,ST,medium,13,ttxEdLIMGM,pool34
0,left,1,2.2301,ST,medium,14,ttxEdLIMGM,pool34
0,left,1,4.925,ST,medium,15,ttxEdLIMGM,pool34
1,left,0,1.7641,ST,medium,16,ttxEdLIMGM,pool34
0,left,1,1.9608,ST,easy,1,pevbr5tS1I,pool34
1,right,1,0.8677,ST,easy,2,pevbr5tS1I,pool34
1,right,1,0.8345,ST,easy,3,pevbr5tS1I,pool34
1,right,1,0.8841,ST,easy,4,pevbr5tS1I,pool34
0,left,1,0.898,ST,easy,5,pevbr5tS1I,pool34
1,right,1,0.8178,ST,easy,6,pevbr5tS1I,pool34
1,right,1,0.7846,ST,easy,7,pevbr5tS1I,pool34
0,left,1,0.9341,ST,easy,8,pevbr5tS1I,pool34
1,right,1,0.6843,ST,easy,9,pevbr5tS1I,pool34
0,left,1,0.8677,ST,easy,10,pevbr5tS1I,pool34
0,left,1,0.9036,ST,easy,11,pevbr5tS1I,pool34
1,right,1,0.9842,ST,easy,12,pevbr5tS1I,pool34
0,left,1,0.7424,ST,easy,13,pevbr5tS1I,pool34
1,right,1,0.8338,ST,easy,14,pevbr5tS1I,pool34
0,left,1,0.7327,ST,easy,15,pevbr5tS1I,pool34
1,right,1,0.9649,ST,easy,16,pevbr5tS1I,pool34
1,right,1,2.5463,ST,hard,1,pevbr5tS1I,pool34
0,left,1,1.8828,ST,hard,2,pevbr5tS1I,pool34
1,right,1,1.467,ST,hard,3,pevbr5tS1I,pool34
1,right,1,1.5355,ST,hard,4,pevbr5tS1I,pool34
1,right,1,1.7032,ST,hard,5,pevbr5tS1I,pool34
1,right,1,1.2239,ST,hard,6,pevbr5tS1I,pool34
0,left,1,1.4843,ST,hard,7,pevbr5tS1I,pool34
1,right,1,1.3013,ST,hard,8,pevbr5tS1I,pool34
1,left,0,1.5659,ST,hard,9,pevbr5tS1I,pool34
0,left,1,1.1161,ST,hard,10,pevbr5tS1I,pool34
1,right,1,0.9529,ST,hard,11,pevbr5tS1I,pool34
1,right,1,1.0481,ST,hard,12,pevbr5tS1I,pool34
0,right,0,0.9332,ST,hard,13,pevbr5tS1I,pool34
0,left,1,1.3566,ST,hard,14,pevbr5tS1I,pool34
1,right,1,1.0334,ST,hard,15,pevbr5tS1I,pool34
0,left,1,1.4878,ST,hard,16,pevbr5tS1I,pool34
0,left,1,1.64,ST,medium,1,pevbr5tS1I,pool34
1,right,1,1.0056,ST,medium,2,pevbr5tS1I,pool34
0,left,1,1.1021,ST,medium,3,pevbr5tS1I,pool34
0,left,1,0.9582,ST,medium,4,pevbr5tS1I,pool34
0,left,1,0.8698,ST,medium,5,pevbr5tS1I,pool34
0,left,1,1.3842,ST,medium,6,pevbr5tS1I,pool34
1,right,1,1.234,ST,medium,7,pevbr5tS1I,pool34
0,right,0,1.3344,ST,medium,8,pevbr5tS1I,pool34
1,right,1,0.8878,ST,medium,9,pevbr5tS1I,pool34
1,left,0,2.9033,ST,medium,10,pevbr5tS1I,pool34
0,left,1,1.0155,ST,medium,11,pevbr5tS1I,pool34
0,right,0,1.3175,ST,medium,12,pevbr5tS1I,pool34
1,right,1,1.0008,ST,medium,13,pevbr5tS1I,pool34
0,right,0,1.6172,ST,medium,14,pevbr5tS1I,pool34
1,right,1,1.018,ST,medium,15,pevbr5tS1I,pool34
1,left,0,2.6489,ST,medium,16,pevbr5tS1I,pool34
0,left,1,0.9238,ST,easy,1,zMSGYZOzxF,pool34
0,left,1,1.9411,ST,easy,2,zMSGYZOzxF,pool34
0,left,1,0.8312,ST,easy,3,zMSGYZOzxF,pool34
0,left,1,0.9367,ST,easy,4,zMSGYZOzxF,pool34
0,left,1,1.2511,ST,easy,5,zMSGYZOzxF,pool34
0,left,1,0.9668,ST,easy,6,zMSGYZOzxF,pool34
1,right,1,0.9343,ST,easy,7,zMSGYZOzxF,pool34
0,left,1,0.9991,ST,easy,8,zMSGYZOzxF,pool34
0,left,1,1.0937,ST,easy,9,zMSGYZOzxF,pool34
0,left,1,0.9415,ST,easy,10,zMSGYZOzxF,pool34
0,left,1,1.1019,ST,easy,11,zMSGYZOzxF,pool34
0,left,1,0.9582,ST,easy,12,zMSGYZOzxF,pool34
1,right,1,1.1976,ST,easy,13,zMSGYZOzxF,pool34
0,left,1,0.8001,ST,easy,14,zMSGYZOzxF,pool34
0,left,1,0.8607,ST,easy,15,zMSGYZOzxF,pool34
0,left,1,0.8982,ST,easy,16,zMSGYZOzxF,pool34
1,left,0,0.8931,ST,hard,1,zMSGYZOzxF,pool34
1,right,1,1.2614,ST,hard,2,zMSGYZOzxF,pool34
0,left,1,0.7652,ST,hard,3,zMSGYZOzxF,pool34
1,right,1,1.1637,ST,hard,4,zMSGYZOzxF,pool34
1,left,0,0.9625,ST,hard,5,zMSGYZOzxF,pool34
1,left,0,0.8972,ST,hard,6,zMSGYZOzxF,pool34
0,left,1,1.1652,ST,hard,7,zMSGYZOzxF,pool34
0,left,1,0.9094,ST,hard,8,zMSGYZOzxF,pool34
1,right,1,0.9643,ST,hard,9,zMSGYZOzxF,pool34
0,left,1,1.1614,ST,hard,10,zMSGYZOzxF,pool34
1,left,0,1.1852,ST,hard,11,zMSGYZOzxF,pool34
1,left,0,0.9327,ST,hard,12,zMSGYZOzxF,pool34
1,right,1,0.7662,ST,hard,13,zMSGYZOzxF,pool34
0,left,1,0.8564,ST,hard,14,zMSGYZOzxF,pool34
1,right,1,1.4326,ST,hard,15,zMSGYZOzxF,pool34
0,left,1,0.9093,ST,hard,16,zMSGYZOzxF,pool34
0,left,1,1.7605,ST,medium,1,zMSGYZOzxF,pool34
0,left,1,1.3287,ST,medium,2,zMSGYZOzxF,pool34
0,left,1,1.4314,ST,medium,3,zMSGYZOzxF,pool34
1,right,1,1.198,ST,medium,4,zMSGYZOzxF,pool34
0,left,1,1.3929,ST,medium,5,zMSGYZOzxF,pool34
0,left,1,1.1941,ST,medium,6,zMSGYZOzxF,pool34
0,left,1,1.1054,ST,medium,7,zMSGYZOzxF,pool34
1,right,1,1.1764,ST,medium,8,zMSGYZOzxF,pool34
1,right,1,0.9697,ST,medium,9,zMSGYZOzxF,pool34
1,right,1,0.9649,ST,medium,10,zMSGYZOzxF,pool34
0,left,1,0.9253,ST,medium,11,zMSGYZOzxF,pool34
1,left,0,0.9641,ST,medium,12,zMSGYZOzxF,pool34
0,left,1,2.3298,ST,medium,13,zMSGYZOzxF,pool34
0,left,1,0.8357,ST,medium,14,zMSGYZOzxF,pool34
1,right,1,1.2248000000000001,ST,medium,15,zMSGYZOzxF,pool34
1,right,1,1.1995,ST,medium,16,zMSGYZOzxF,pool34
0,left,1,0.9838,ST,easy,1,FgaXoRhEpQ,pool34
1,right,1,1.2013,ST,easy,2,FgaXoRhEpQ,pool34
0,left,1,0.9153,ST,easy,3,FgaXoRhEpQ,pool34
0,left,1,0.7854,ST,easy,4,FgaXoRhEpQ,pool34
0,left,1,0.8507,ST,easy,5,FgaXoRhEpQ,pool34
1,right,1,1.6048,ST,easy,6,FgaXoRhEpQ,pool34
1,right,1,1.4156,ST,easy,7,FgaXoRhEpQ,pool34
0,left,1,1.5863,ST,easy,8,FgaXoRhEpQ,pool34
1,right,1,1.0738,ST,easy,9,FgaXoRhEpQ,pool34
1,right,1,1.2748,ST,easy,10,FgaXoRhEpQ,pool34
0,left,1,0.9235,ST,easy,11,FgaXoRhEpQ,pool34
1,right,1,1.1331,ST,easy,12,FgaXoRhEpQ,pool34
1,right,1,0.984,ST,easy,13,FgaXoRhEpQ,pool34
1,right,1,1.4505,ST,easy,14,FgaXoRhEpQ,pool34
1,right,1,0.9722,ST,easy,15,FgaXoRhEpQ,pool34
0,left,1,1.5361,ST,easy,16,FgaXoRhEpQ,pool34
1,left,0,4.7292,ST,hard,1,FgaXoRhEpQ,pool34
0,left,1,1.2519,ST,hard,2,FgaXoRhEpQ,pool34
1,right,1,1.0846,ST,hard,3,FgaXoRhEpQ,pool34
0,left,1,1.492,ST,hard,4,FgaXoRhEpQ,pool34
0,left,1,1.1228,ST,hard,5,FgaXoRhEpQ,pool34
1,right,1,2.6997,ST,hard,6,FgaXoRhEpQ,pool34
1,left,0,3.1869,ST,hard,7,FgaXoRhEpQ,pool34
1,right,1,1.7934,ST,hard,8,FgaXoRhEpQ,pool34
0,left,1,1.4335,ST,hard,9,FgaXoRhEpQ,pool34
0,right,0,1.192,ST,hard,10,FgaXoRhEpQ,pool34
0,left,1,1.1261,ST,hard,11,FgaXoRhEpQ,pool34
0,left,1,1.2202,ST,hard,12,FgaXoRhEpQ,pool34
1,left,0,1.6247,ST,hard,13,FgaXoRhEpQ,pool34
1,left,0,0.9942,ST,hard,14,FgaXoRhEpQ,pool34
1,right,1,3.9997,ST,hard,15,FgaXoRhEpQ,pool34
0,left,1,1.9252,ST,hard,16,FgaXoRhEpQ,pool34
0,left,1,1.1841,ST,medium,1,FgaXoRhEpQ,pool34
0,left,1,1.0164,ST,medium,2,FgaXoRhEpQ,pool34
0,left,1,0.9679,ST,medium,3,FgaXoRhEpQ,pool34
1,right,1,1.5574,ST,medium,4,FgaXoRhEpQ,pool34
0,left,1,1.0361,ST,medium,5,FgaXoRhEpQ,pool34
0,left,1,0.9217,ST,medium,6,FgaXoRhEpQ,pool34
0,left,1,2.3253,ST,medium,7,FgaXoRhEpQ,pool34
0,left,1,0.9191,ST,medium,8,FgaXoRhEpQ,pool34
1,right,1,1.2741,ST,medium,9,FgaXoRhEpQ,pool34
0,left,1,1.1078,ST,medium,10,FgaXoRhEpQ,pool34
0,left,1,1.1995,ST,medium,11,FgaXoRhEpQ,pool34
0,left,1,1.4203,ST,medium,12,FgaXoRhEpQ,pool34
1,right,1,3.4001,ST,medium,13,FgaXoRhEpQ,pool34
0,left,1,0.9499,ST,medium,14,FgaXoRhEpQ,pool34
1,right,1,1.3862,ST,medium,15,FgaXoRhEpQ,pool34
0,left,1,1.8053,ST,medium,16,FgaXoRhEpQ,pool34
0,left,1,1.0086,ST,easy,1,V4epNAqh9h,pool34
1,right,1,1.4651,ST,easy,2,V4epNAqh9h,pool34
0,left,1,1.6826,ST,easy,3,V4epNAqh9h,pool34
1,right,1,2.4142,ST,easy,4,V4epNAqh9h,pool34
1,right,1,1.0831,ST,easy,5,V4epNAqh9h,pool34
1,right,1,0.7691,ST,easy,6,V4epNAqh9h,pool34
1,right,1,0.7729,ST,easy,7,V4epNAqh9h,pool34
1,right,1,0.8038,ST,easy,8,V4epNAqh9h,pool34
0,left,1,0.9161,ST,easy,9,V4epNAqh9h,pool34
0,left,1,0.9119,ST,easy,10,V4epNAqh9h,pool34
1,left,0,1.1549,ST,easy,11,V4epNAqh9h,pool34
1,right,1,0.9988,ST,easy,12,V4epNAqh9h,pool34
1,right,1,1.1714,ST,easy,13,V4epNAqh9h,pool34
1,right,1,1.3823,ST,easy,14,V4epNAqh9h,pool34
1,left,0,1.7978,ST,easy,15,V4epNAqh9h,pool34
0,left,1,1.0828,ST,easy,16,V4epNAqh9h,pool34
1,left,0,2.2463,ST,hard,1,V4epNAqh9h,pool34
1,right,1,1.162,ST,hard,2,V4epNAqh9h,pool34
0,left,1,1.3267,ST,hard,3,V4epNAqh9h,pool34
1,right,1,0.7634,ST,hard,4,V4epNAqh9h,pool34
0,left,1,1.2958,ST,hard,5,V4epNAqh9h,pool34
1,left,0,1.0804,ST,hard,6,V4epNAqh9h,pool34
0,left,1,0.9178,ST,hard,7,V4epNAqh9h,pool34
1,left,0,1.093,ST,hard,8,V4epNAqh9h,pool34
0,right,0,1.2836,ST,hard,9,V4epNAqh9h,pool34
1,left,0,1.1682,ST,hard,10,V4epNAqh9h,pool34
1,right,1,0.9659,ST,hard,11,V4epNAqh9h,pool34
1,right,1,1.5796,ST,hard,12,V4epNAqh9h,pool34
1,left,0,1.0485,ST,hard,13,V4epNAqh9h,pool34
0,left,1,1.0223,ST,hard,14,V4epNAqh9h,pool34
1,left,0,1.539,ST,hard,15,V4epNAqh9h,pool34
0,left,1,1.0989,ST,hard,16,V4epNAqh9h,pool34
1,right,1,0.8952,ST,medium,1,V4epNAqh9h,pool34
0,left,1,1.0641,ST,medium,2,V4epNAqh9h,pool34
1,right,1,0.8661,ST,medium,3,V4epNAqh9h,pool34
0,left,1,0.896,ST,medium,4,V4epNAqh9h,pool34
1,right,1,3.1351,ST,medium,5,V4epNAqh9h,pool34
1,left,0,1.0642,ST,medium,6,V4epNAqh9h,pool34
0,left,1,1.0817,ST,medium,7,V4epNAqh9h,pool34
0,left,1,1.3162,ST,medium,8,V4epNAqh9h,pool34
0,left,1,1.1328,ST,medium,9,V4epNAqh9h,pool34
1,right,1,1.0736,ST,medium,10,V4epNAqh9h,pool34
0,left,1,0.9462,ST,medium,11,V4epNAqh9h,pool34
1,right,1,0.8052,ST,medium,12,V4epNAqh9h,pool34
1,right,1,0.8945,ST,medium,13,V4epNAqh9h,pool34
0,left,1,1.5819,ST,medium,14,V4epNAqh9h,pool34
0,left,1,0.9971,ST,medium,15,V4epNAqh9h,pool34
0,left,1,1.0683,ST,medium,16,V4epNAqh9h,pool34
0,left,1,1.4562,ST,easy,1,7s1EYKyluI,pool34
1,right,1,1.1532,ST,easy,2,7s1EYKyluI,pool34
0,left,1,1.0157,ST,easy,3,7s1EYKyluI,pool34
1,right,1,0.867,ST,easy,4,7s1EYKyluI,pool34
1,right,1,0.9554,ST,easy,5,7s1EYKyluI,pool34
1,right,1,0.8394,ST,easy,6,7s1EYKyluI,pool34
1,right,1,0.9169,ST,easy,7,7s1EYKyluI,pool34
0,left,1,1.4358,ST,easy,8,7s1EYKyluI,pool34
0,left,1,1.1004,ST,easy,9,7s1EYKyluI,pool34
1,right,1,0.7248,ST,easy,10,7s1EYKyluI,pool34
1,right,1,0.8503,ST,easy,11,7s1EYKyluI,pool34
0,left,1,1.167,ST,easy,12,7s1EYKyluI,pool34
0,left,1,1.1005,ST,easy,13,7s1EYKyluI,pool34
0,left,1,0.9215,ST,easy,14,7s1EYKyluI,pool34
1,right,1,0.8003,ST,easy,15,7s1EYKyluI,pool34
1,right,1,0.7505,ST,easy,16,7s1EYKyluI,pool34
0,left,1,1.4487,ST,hard,1,7s1EYKyluI,pool34
0,right,0,0.4899,ST,hard,2,7s1EYKyluI,pool34
1,right,1,0.8502,ST,hard,3,7s1EYKyluI,pool34
0,left,1,1.0073,ST,hard,4,7s1EYKyluI,pool34
1,left,0,1.2507,ST,hard,5,7s1EYKyluI,pool34
0,left,1,1.0337,ST,hard,6,7s1EYKyluI,pool34
1,left,0,0.8386,ST,hard,7,7s1EYKyluI,pool34
0,left,1,1.6236,ST,hard,8,7s1EYKyluI,pool34
1,right,1,0.5685,ST,hard,9,7s1EYKyluI,pool34
1,right,1,0.5877,ST,hard,10,7s1EYKyluI,pool34
0,left,1,0.9742,ST,hard,11,7s1EYKyluI,pool34
1,left,0,1.0173,ST,hard,12,7s1EYKyluI,pool34
0,right,0,1.1671,ST,hard,13,7s1EYKyluI,pool34
0,right,0,0.7676,ST,hard,14,7s1EYKyluI,pool34
1,right,1,1.0507,ST,hard,15,7s1EYKyluI,pool34
0,left,1,0.8838,ST,hard,16,7s1EYKyluI,pool34
0,right,0,2.1828,ST,medium,1,7s1EYKyluI,pool34
0,right,0,0.9338,ST,medium,2,7s1EYKyluI,pool34
0,left,1,1.0172,ST,medium,3,7s1EYKyluI,pool34
0,left,1,1.1549,ST,medium,4,7s1EYKyluI,pool34
1,right,1,0.9339,ST,medium,5,7s1EYKyluI,pool34
1,right,1,0.973,ST,medium,6,7s1EYKyluI,pool34
1,right,1,0.9202,ST,medium,7,7s1EYKyluI,pool34
0,left,1,1.2337,ST,medium,8,7s1EYKyluI,pool34
0,left,1,1.7007,ST,medium,9,7s1EYKyluI,pool34
0,left,1,1.0989,ST,medium,10,7s1EYKyluI,pool34
0,left,1,1.006,ST,medium,11,7s1EYKyluI,pool34
1,right,1,0.7837,ST,medium,12,7s1EYKyluI,pool34
1,right,1,0.9547,ST,medium,13,7s1EYKyluI,pool34
1,right,1,0.9506,ST,medium,14,7s1EYKyluI,pool34
1,right,1,1.1839,ST,medium,15,7s1EYKyluI,pool34
1,right,1,1.2563,ST,medium,16,7s1EYKyluI,pool34
1,right,1,0.8563,ST,easy,1,GxpGXkXK8v,pool34
1,right,1,0.7034,ST,easy,2,GxpGXkXK8v,pool34
0,left,1,1.0076,ST,easy,3,GxpGXkXK8v,pool34
0,left,1,1.0243,ST,easy,4,GxpGXkXK8v,pool34
0,left,1,0.7863,ST,easy,5,GxpGXkXK8v,pool34
1,right,1,0.7993,ST,easy,6,GxpGXkXK8v,pool34
1,right,1,0.7249,ST,easy,7,GxpGXkXK8v,pool34
0,left,1,0.8159,ST,easy,8,GxpGXkXK8v,pool34
1,right,1,0.8603,ST,easy,9,GxpGXkXK8v,pool34
0,left,1,0.7824,ST,easy,10,GxpGXkXK8v,pool34
0,left,1,0.6495,ST,easy,11,GxpGXkXK8v,pool34
0,left,1,0.638,ST,easy,12,GxpGXkXK8v,pool34
0,left,1,0.6349,ST,easy,13,GxpGXkXK8v,pool34
0,left,1,0.6317,ST,easy,14,GxpGXkXK8v,pool34
1,right,1,1.1574,ST,easy,15,GxpGXkXK8v,pool34
1,right,1,0.7343,ST,easy,16,GxpGXkXK8v,pool34
0,left,1,2.6649,ST,hard,1,GxpGXkXK8v,pool34
1,left,0,1.3409,ST,hard,2,GxpGXkXK8v,pool34
0,left,1,1.2192,ST,hard,3,GxpGXkXK8v,pool34
0,left,1,1.7525,ST,hard,4,GxpGXkXK8v,pool34
1,right,1,0.8342,ST,hard,5,GxpGXkXK8v,pool34
0,left,1,1.1791,ST,hard,6,GxpGXkXK8v,pool34
1,right,1,0.9164,ST,hard,7,GxpGXkXK8v,pool34
1,left,0,1.3996,ST,hard,8,GxpGXkXK8v,pool34
0,left,1,1.0082,ST,hard,9,GxpGXkXK8v,pool34
1,left,0,0.8369,ST,hard,10,GxpGXkXK8v,pool34
1,left,0,0.7918,ST,hard,11,GxpGXkXK8v,pool34
0,right,0,1.1916,ST,hard,12,GxpGXkXK8v,pool34
1,right,1,0.9111,ST,hard,13,GxpGXkXK8v,pool34
1,right,1,1.061,ST,hard,14,GxpGXkXK8v,pool34
1,left,0,1.1357,ST,hard,15,GxpGXkXK8v,pool34
1,right,1,0.9,ST,hard,16,GxpGXkXK8v,pool34
1,right,1,1.9615,ST,medium,1,GxpGXkXK8v,pool34
1,right,1,0.9049,ST,medium,2,GxpGXkXK8v,pool34
1,right,1,0.8113,ST,medium,3,GxpGXkXK8v,pool34
0,right,0,0.7061,ST,medium,4,GxpGXkXK8v,pool34
0,right,0,0.827,ST,medium,5,GxpGXkXK8v,pool34
1,right,1,0.7158,ST,medium,6,GxpGXkXK8v,pool34
1,right,1,0.6505,ST,medium,7,GxpGXkXK8v,pool34
1,right,1,0.7918,ST,medium,8,GxpGXkXK8v,pool34
0,right,0,0.6865,ST,medium,9,GxpGXkXK8v,pool34
1,right,1,0.8208,ST,medium,10,GxpGXkXK8v,pool34
0,left,1,1.5933,ST,medium,11,GxpGXkXK8v,pool34
1,right,1,0.8523,ST,medium,12,GxpGXkXK8v,pool34
1,left,0,1.0009,ST,medium,13,GxpGXkXK8v,pool34
1,right,1,0.7215,ST,medium,14,GxpGXkXK8v,pool34
0,right,0,1.4011,ST,medium,15,GxpGXkXK8v,pool34
1,right,1,0.6514,ST,medium,16,GxpGXkXK8v,pool34
1,right,1,1.0707,ST,easy,1,W98TU3XJxb,pool34
1,right,1,0.9675,ST,easy,2,W98TU3XJxb,pool34
0,left,1,0.9869,ST,easy,3,W98TU3XJxb,pool34
0,left,1,0.7492,ST,easy,4,W98TU3XJxb,pool34
0,left,1,0.8368,ST,easy,5,W98TU3XJxb,pool34
0,left,1,0.6001,ST,easy,6,W98TU3XJxb,pool34
1,right,1,0.699,ST,easy,7,W98TU3XJxb,pool34
0,left,1,0.7694,ST,easy,8,W98TU3XJxb,pool34
0,left,1,0.6106,ST,easy,9,W98TU3XJxb,pool34
1,right,1,2.0716,ST,easy,10,W98TU3XJxb,pool34
0,left,1,0.6314,ST,easy,11,W98TU3XJxb,pool34
0,left,1,0.9042,ST,easy,12,W98TU3XJxb,pool34
1,right,1,0.8419,ST,easy,13,W98TU3XJxb,pool34
0,left,1,0.6929,ST,easy,14,W98TU3XJxb,pool34
0,left,1,0.8967,ST,easy,15,W98TU3XJxb,pool34
1,right,1,0.8979,ST,easy,16,W98TU3XJxb,pool34
0,left,1,1.3073,ST,hard,1,W98TU3XJxb,pool34
1,right,1,1.0402,ST,hard,2,W98TU3XJxb,pool34
1,right,1,0.7358,ST,hard,3,W98TU3XJxb,pool34
1,right,1,0.6398,ST,hard,4,W98TU3XJxb,pool34
0,left,1,0.9177,ST,hard,5,W98TU3XJxb,pool34
1,right,1,1.2349,ST,hard,6,W98TU3XJxb,pool34
0,left,1,0.7648,ST,hard,7,W98TU3XJxb,pool34
0,left,1,0.7976,ST,hard,8,W98TU3XJxb,pool34
0,left,1,0.8642,ST,hard,9,W98TU3XJxb,pool34
1,right,1,0.6244,ST,hard,10,W98TU3XJxb,pool34
0,left,1,0.9301,ST,hard,11,W98TU3XJxb,pool34
1,left,0,1.2413,ST,hard,12,W98TU3XJxb,pool34
0,left,1,0.7969,ST,hard,13,W98TU3XJxb,pool34
0,left,1,1.3411,ST,hard,14,W98TU3XJxb,pool34
1,right,1,1.6309,ST,hard,15,W98TU3XJxb,pool34
0,left,1,0.7303,ST,hard,16,W98TU3XJxb,pool34
0,left,1,1.4098,ST,medium,1,W98TU3XJxb,pool34
1,right,1,0.9006,ST,medium,2,W98TU3XJxb,pool34
0,left,1,0.8262,ST,medium,3,W98TU3XJxb,pool34
0,left,1,0.7782,ST,medium,4,W98TU3XJxb,pool34
1,right,1,1.0258,ST,medium,5,W98TU3XJxb,pool34
0,left,1,0.8448,ST,medium,6,W98TU3XJxb,pool34
1,right,1,0.5608,ST,medium,7,W98TU3XJxb,pool34
1,right,1,0.6015,ST,medium,8,W98TU3XJxb,pool34
1,left,0,0.7283,ST,medium,9,W98TU3XJxb,pool34
0,left,1,1.0344,ST,medium,10,W98TU3XJxb,pool34
1,left,0,0.7922,ST,medium,11,W98TU3XJxb,pool34
0,left,1,0.7672,ST,medium,12,W98TU3XJxb,pool34
0,left,1,0.6942,ST,medium,13,W98TU3XJxb,pool34
1,right,1,0.8176,ST,medium,14,W98TU3XJxb,pool34
0,left,1,0.7286,ST,medium,15,W98TU3XJxb,pool34
0,left,1,0.7039,ST,medium,16,W98TU3XJxb,pool34
1,right,1,2.1176,ST,easy,1,yWB1eDgHxE,pool34
0,left,1,1.0513,ST,easy,2,yWB1eDgHxE,pool34
1,right,1,0.8174,ST,easy,3,yWB1eDgHxE,pool34
1,right,1,0.8177,ST,easy,4,yWB1eDgHxE,pool34
1,right,1,0.8347,ST,easy,5,yWB1eDgHxE,pool34
1,right,1,0.6343,ST,easy,6,yWB1eDgHxE,pool34
1,right,1,0.5508,ST,easy,7,yWB1eDgHxE,pool34
1,right,1,0.6197,ST,easy,8,yWB1eDgHxE,pool34
1,right,1,0.7177,ST,easy,9,yWB1eDgHxE,pool34
1,right,1,0.5339,ST,easy,10,yWB1eDgHxE,pool34
1,right,1,0.6345,ST,easy,11,yWB1eDgHxE,pool34
0,left,1,0.6508,ST,easy,12,yWB1eDgHxE,pool34
0,left,1,0.7011,ST,easy,13,yWB1eDgHxE,pool34
0,left,1,0.7349,ST,easy,14,yWB1eDgHxE,pool34
0,left,1,0.6835,ST,easy,15,yWB1eDgHxE,pool34
1,left,0,1.7354,ST,easy,16,yWB1eDgHxE,pool34
0,left,1,2.4599,ST,hard,1,yWB1eDgHxE,pool34
0,left,1,1.1731,ST,hard,2,yWB1eDgHxE,pool34
1,right,1,0.783,ST,hard,3,yWB1eDgHxE,pool34
0,left,1,2.2105,ST,hard,4,yWB1eDgHxE,pool34
1,right,1,0.4792,ST,hard,5,yWB1eDgHxE,pool34
0,left,1,1.1166,ST,hard,6,yWB1eDgHxE,pool34
1,right,1,0.7172,ST,hard,7,yWB1eDgHxE,pool34
0,right,0,0.7239,ST,hard,8,yWB1eDgHxE,pool34
0,left,1,1.3683,ST,hard,9,yWB1eDgHxE,pool34
0,right,0,0.7505,ST,hard,10,yWB1eDgHxE,pool34
1,right,1,0.8859,ST,hard,11,yWB1eDgHxE,pool34
1,left,0,0.8376,ST,hard,12,yWB1eDgHxE,pool34
1,left,0,0.8627,ST,hard,13,yWB1eDgHxE,pool34
0,right,0,0.8552,ST,hard,14,yWB1eDgHxE,pool34
0,left,1,0.7133,ST,hard,15,yWB1eDgHxE,pool34
0,left,1,0.7908,ST,hard,16,yWB1eDgHxE,pool34
0,left,1,1.2494,ST,medium,1,yWB1eDgHxE,pool34
0,left,1,1.1208,ST,medium,2,yWB1eDgHxE,pool34
1,right,1,1.5939,ST,medium,3,yWB1eDgHxE,pool34
1,right,1,0.9849,ST,medium,4,yWB1eDgHxE,pool34
1,right,1,1.0179,ST,medium,5,yWB1eDgHxE,pool34
1,right,1,0.924,ST,medium,6,yWB1eDgHxE,pool34
0,left,1,0.8636,ST,medium,7,yWB1eDgHxE,pool34
1,right,1,0.9431,ST,medium,8,yWB1eDgHxE,pool34
0,right,0,3.7696,ST,medium,9,yWB1eDgHxE,pool34
1,right,1,0.8511,ST,medium,10,yWB1eDgHxE,pool34
0,left,1,1.0513,ST,medium,11,yWB1eDgHxE,pool34
1,right,1,1.2688,ST,medium,12,yWB1eDgHxE,pool34
0,left,1,2.3855,ST,medium,13,yWB1eDgHxE,pool34
1,left,0,2.3686,ST,medium,14,yWB1eDgHxE,pool34
0,left,1,0.7517,ST,medium,15,yWB1eDgHxE,pool34
0,left,1,1.3515,ST,medium,16,yWB1eDgHxE,pool34
0,left,1,1.0093,ST,easy,1,cdCa7qlKqK,pool34
1,right,1,0.9642,ST,easy,2,cdCa7qlKqK,pool34
0,left,1,0.978,ST,easy,3,cdCa7qlKqK,pool34
0,left,1,0.8565,ST,easy,4,cdCa7qlKqK,pool34
0,left,1,1.0773,ST,easy,5,cdCa7qlKqK,pool34
1,right,1,1.0918,ST,easy,6,cdCa7qlKqK,pool34
1,right,1,1.0538,ST,easy,7,cdCa7qlKqK,pool34
1,right,1,1.0754,ST,easy,8,cdCa7qlKqK,pool34
1,right,1,0.9774,ST,easy,9,cdCa7qlKqK,pool34
1,right,1,0.8554,ST,easy,10,cdCa7qlKqK,pool34
0,left,1,0.9774,ST,easy,11,cdCa7qlKqK,pool34
0,left,1,1.0705,ST,easy,12,cdCa7qlKqK,pool34
1,left,0,1.0075,ST,easy,13,cdCa7qlKqK,pool34
0,left,1,0.9237,ST,easy,14,cdCa7qlKqK,pool34
1,right,1,1.0404,ST,easy,15,cdCa7qlKqK,pool34
1,right,1,0.8803,ST,easy,16,cdCa7qlKqK,pool34
1,right,1,3.1477,ST,hard,1,cdCa7qlKqK,pool34
1,right,1,3.0581,ST,hard,2,cdCa7qlKqK,pool34
0,left,1,2.3911,ST,hard,3,cdCa7qlKqK,pool34
1,right,1,3.2258,ST,hard,4,cdCa7qlKqK,pool34
1,right,1,2.1257,ST,hard,5,cdCa7qlKqK,pool34
0,left,1,2.0798,ST,hard,6,cdCa7qlKqK,pool34
0,right,0,2.2316,ST,hard,7,cdCa7qlKqK,pool34
0,left,1,1.7591,ST,hard,8,cdCa7qlKqK,pool34
1,right,1,4.4013,ST,hard,9,cdCa7qlKqK,pool34
1,left,0,1.7747,ST,hard,10,cdCa7qlKqK,pool34
0,left,1,3.3065,ST,hard,11,cdCa7qlKqK,pool34
1,left,0,2.5023,ST,hard,12,cdCa7qlKqK,pool34
0,right,0,1.627,ST,hard,13,cdCa7qlKqK,pool34
0,left,1,1.705,ST,hard,14,cdCa7qlKqK,pool34
0,left,1,1.6747,ST,hard,15,cdCa7qlKqK,pool34
0,left,1,1.2169,ST,hard,16,cdCa7qlKqK,pool34
1,right,1,1.9408,ST,medium,1,cdCa7qlKqK,pool34
1,right,1,1.3726,ST,medium,2,cdCa7qlKqK,pool34
1,right,1,1.0548,ST,medium,3,cdCa7qlKqK,pool34
0,left,1,1.1178,ST,medium,4,cdCa7qlKqK,pool34
1,left,0,1.9389,ST,medium,5,cdCa7qlKqK,pool34
0,left,1,1.1462,ST,medium,6,cdCa7qlKqK,pool34
1,right,1,1.1999,ST,medium,7,cdCa7qlKqK,pool34
1,right,1,1.6198,ST,medium,8,cdCa7qlKqK,pool34
1,right,1,1.408,ST,medium,9,cdCa7qlKqK,pool34
0,right,0,3.2394,ST,medium,10,cdCa7qlKqK,pool34
0,right,0,1.4428,ST,medium,11,cdCa7qlKqK,pool34
0,left,1,2.0986,ST,medium,12,cdCa7qlKqK,pool34
0,left,1,1.2328,ST,medium,13,cdCa7qlKqK,pool34
1,right,1,1.2236,ST,medium,14,cdCa7qlKqK,pool34
0,left,1,1.2021,ST,medium,15,cdCa7qlKqK,pool34
0,left,1,1.2287,ST,medium,16,cdCa7qlKqK,pool34
0,left,1,1.544,ST,easy,1,0dkwUmCwzJ,pool34
0,left,1,1.0832,ST,easy,2,0dkwUmCwzJ,pool34
0,left,1,0.8494,ST,easy,3,0dkwUmCwzJ,pool34
0,left,1,0.7843,ST,easy,4,0dkwUmCwzJ,pool34
0,left,1,0.675,ST,easy,5,0dkwUmCwzJ,pool34
1,right,1,0.9695,ST,easy,6,0dkwUmCwzJ,pool34
1,right,1,0.959,ST,easy,7,0dkwUmCwzJ,pool34
1,right,1,0.8992,ST,easy,8,0dkwUmCwzJ,pool34
1,right,1,0.6777,ST,easy,9,0dkwUmCwzJ,pool34
1,right,1,0.6379,ST,easy,10,0dkwUmCwzJ,pool34
0,left,1,1.1421,ST,easy,11,0dkwUmCwzJ,pool34
1,right,1,0.8326,ST,easy,12,0dkwUmCwzJ,pool34
0,left,1,0.6602,ST,easy,13,0dkwUmCwzJ,pool34
0,left,1,0.7849,ST,easy,14,0dkwUmCwzJ,pool34
0,left,1,2.3751,ST,easy,15,0dkwUmCwzJ,pool34
1,right,1,0.8374,ST,easy,16,0dkwUmCwzJ,pool34
1,left,0,3.1878,ST,hard,1,0dkwUmCwzJ,pool34
1,right,1,1.621,ST,hard,2,0dkwUmCwzJ,pool34
0,left,1,0.7427,ST,hard,3,0dkwUmCwzJ,pool34
1,right,1,1.0072,ST,hard,4,0dkwUmCwzJ,pool34
0,right,0,1.9732,ST,hard,5,0dkwUmCwzJ,pool34
1,right,1,1.0771,ST,hard,6,0dkwUmCwzJ,pool34
1,right,1,0.9615,ST,hard,7,0dkwUmCwzJ,pool34
1,right,1,0.8881,ST,hard,8,0dkwUmCwzJ,pool34
0,left,1,0.8657,ST,hard,9,0dkwUmCwzJ,pool34
1,right,1,0.9761,ST,hard,10,0dkwUmCwzJ,pool34
0,left,1,0.8213,ST,hard,11,0dkwUmCwzJ,pool34
0,left,1,0.7607,ST,hard,12,0dkwUmCwzJ,pool34
1,left,0,0.6332,ST,hard,13,0dkwUmCwzJ,pool34
0,left,1,0.6389,ST,hard,14,0dkwUmCwzJ,pool34
0,left,1,0.6653,ST,hard,15,0dkwUmCwzJ,pool34
0,left,1,0.6787,ST,hard,16,0dkwUmCwzJ,pool34
0,left,1,1.7987,ST,medium,1,0dkwUmCwzJ,pool34
0,left,1,1.6418,ST,medium,2,0dkwUmCwzJ,pool34
0,left,1,1.2669,ST,medium,3,0dkwUmCwzJ,pool34
1,right,1,1.6014,ST,medium,4,0dkwUmCwzJ,pool34
1,left,0,1.3445,ST,medium,5,0dkwUmCwzJ,pool34
1,right,1,1.3669,ST,medium,6,0dkwUmCwzJ,pool34
0,left,1,1.2505,ST,medium,7,0dkwUmCwzJ,pool34
1,right,1,1.353,ST,medium,8,0dkwUmCwzJ,pool34
1,right,1,1.1818,ST,medium,9,0dkwUmCwzJ,pool34
0,left,1,1.3759,ST,medium,10,0dkwUmCwzJ,pool34
1,left,0,1.7321,ST,medium,11,0dkwUmCwzJ,pool34
0,left,1,1.5495,ST,medium,12,0dkwUmCwzJ,pool34
0,left,1,1.3668,ST,medium,13,0dkwUmCwzJ,pool34
0,left,1,1.0506,ST,medium,14,0dkwUmCwzJ,pool34
1,right,1,1.0493,ST,medium,15,0dkwUmCwzJ,pool34
0,left,1,1.1688,ST,medium,16,0dkwUmCwzJ,pool34
1,right,1,1.6156,ST,easy,1,h3qLkF1oCE,pool34
1,right,1,0.8215,ST,easy,2,h3qLkF1oCE,pool34
0,left,1,0.8861,ST,easy,3,h3qLkF1oCE,pool34
0,left,1,1.1836,ST,easy,4,h3qLkF1oCE,pool34
1,right,1,0.8495,ST,easy,5,h3qLkF1oCE,pool34
1,right,1,2.2867,ST,easy,6,h3qLkF1oCE,pool34
1,right,1,0.9501,ST,easy,7,h3qLkF1oCE,pool34
0,left,1,1.0171,ST,easy,8,h3qLkF1oCE,pool34
1,right,1,0.8971,ST,easy,9,h3qLkF1oCE,pool34
1,right,1,0.7341,ST,easy,10,h3qLkF1oCE,pool34
0,left,1,0.7995,ST,easy,11,h3qLkF1oCE,pool34
1,right,1,0.8841,ST,easy,12,h3qLkF1oCE,pool34
1,right,1,0.6171,ST,easy,13,h3qLkF1oCE,pool34
1,right,1,3.0669,ST,easy,14,h3qLkF1oCE,pool34
1,right,1,0.8341,ST,easy,15,h3qLkF1oCE,pool34
1,right,1,0.9282,ST,easy,16,h3qLkF1oCE,pool34
1,left,0,1.9868,ST,hard,1,h3qLkF1oCE,pool34
1,right,1,1.1192,ST,hard,2,h3qLkF1oCE,pool34
1,right,1,0.9828,ST,hard,3,h3qLkF1oCE,pool34
0,left,1,1.2773,ST,hard,4,h3qLkF1oCE,pool34
1,right,1,1.0157,ST,hard,5,h3qLkF1oCE,pool34
0,left,1,1.067,ST,hard,6,h3qLkF1oCE,pool34
0,left,1,0.8814,ST,hard,7,h3qLkF1oCE,pool34
1,right,1,1.1542,ST,hard,8,h3qLkF1oCE,pool34
1,right,1,1.0768,ST,hard,9,h3qLkF1oCE,pool34
1,right,1,0.9367,ST,hard,10,h3qLkF1oCE,pool34
1,left,0,1.0621,ST,hard,11,h3qLkF1oCE,pool34
1,right,1,0.9503,ST,hard,12,h3qLkF1oCE,pool34
1,right,1,1.2441,ST,hard,13,h3qLkF1oCE,pool34
1,left,0,1.4025,ST,hard,14,h3qLkF1oCE,pool34
1,left,0,0.9836,ST,hard,15,h3qLkF1oCE,pool34
1,left,0,1.0868,ST,hard,16,h3qLkF1oCE,pool34
1,right,1,2.215,ST,medium,1,h3qLkF1oCE,pool34
0,left,1,0.8347,ST,medium,2,h3qLkF1oCE,pool34
1,right,1,0.9495,ST,medium,3,h3qLkF1oCE,pool34
1,right,1,0.8492,ST,medium,4,h3qLkF1oCE,pool34
0,right,0,1.1031,ST,medium,5,h3qLkF1oCE,pool34
0,left,1,0.8167,ST,medium,6,h3qLkF1oCE,pool34
0,left,1,0.7836,ST,medium,7,h3qLkF1oCE,pool34
0,right,0,1.1494,ST,medium,8,h3qLkF1oCE,pool34
0,left,1,1.2168,ST,medium,9,h3qLkF1oCE,pool34
1,right,1,1.3008,ST,medium,10,h3qLkF1oCE,pool34
1,right,1,2.2937,ST,medium,11,h3qLkF1oCE,pool34
0,left,1,0.8183,ST,medium,12,h3qLkF1oCE,pool34
0,left,1,0.8155,ST,medium,13,h3qLkF1oCE,pool34
0,left,1,0.7841,ST,medium,14,h3qLkF1oCE,pool34
1,left,0,1,ST,medium,15,h3qLkF1oCE,pool34
0,left,1,1.0161,ST,medium,16,h3qLkF1oCE,pool34
1,right,1,1.3554,ST,easy,1,Q479YcpCNr,pool34
0,left,1,0.9504,ST,easy,2,Q479YcpCNr,pool34
0,left,1,1.0681,ST,easy,3,Q479YcpCNr,pool34
1,right,1,0.6052,ST,easy,4,Q479YcpCNr,pool34
0,left,1,0.7761,ST,easy,5,Q479YcpCNr,pool34
1,right,1,0.6273,ST,easy,6,Q479YcpCNr,pool34
0,left,1,0.8007,ST,easy,7,Q479YcpCNr,pool34
0,left,1,0.7005,ST,easy,8,Q479YcpCNr,pool34
1,right,1,0.6169,ST,easy,9,Q479YcpCNr,pool34
1,right,1,0.7007,ST,easy,10,Q479YcpCNr,pool34
0,left,1,1.0503,ST,easy,11,Q479YcpCNr,pool34
0,left,1,1.1502,ST,easy,12,Q479YcpCNr,pool34
0,left,1,0.583,ST,easy,13,Q479YcpCNr,pool34
0,left,1,0.6068,ST,easy,14,Q479YcpCNr,pool34
0,left,1,0.6384,ST,easy,15,Q479YcpCNr,pool34
1,right,1,0.8496,ST,easy,16,Q479YcpCNr,pool34
0,left,1,1.3123,ST,hard,1,Q479YcpCNr,pool34
0,left,1,1.1777,ST,hard,2,Q479YcpCNr,pool34
1,left,0,0.9345,ST,hard,3,Q479YcpCNr,pool34
0,left,1,1.1257,ST,hard,4,Q479YcpCNr,pool34
0,left,1,0.8212,ST,hard,5,Q479YcpCNr,pool34
1,right,1,1.5846,ST,hard,6,Q479YcpCNr,pool34
0,left,1,1.0365,ST,hard,7,Q479YcpCNr,pool34
1,left,0,1.0843,ST,hard,8,Q479YcpCNr,pool34
1,left,0,1.1079,ST,hard,9,Q479YcpCNr,pool34
0,left,1,1.0019,ST,hard,10,Q479YcpCNr,pool34
0,left,1,0.9043,ST,hard,11,Q479YcpCNr,pool34
1,right,1,0.8017,ST,hard,12,Q479YcpCNr,pool34
1,right,1,0.892,ST,hard,13,Q479YcpCNr,pool34
1,right,1,0.7712,ST,hard,14,Q479YcpCNr,pool34
0,left,1,0.9684,ST,hard,15,Q479YcpCNr,pool34
0,left,1,1.0944,ST,hard,16,Q479YcpCNr,pool34
1,right,1,1.2258,ST,medium,1,Q479YcpCNr,pool34
1,right,1,1.2077,ST,medium,2,Q479YcpCNr,pool34
0,left,1,1.3508,ST,medium,3,Q479YcpCNr,pool34
0,right,0,1.0397,ST,medium,4,Q479YcpCNr,pool34
0,left,1,1.1088,ST,medium,5,Q479YcpCNr,pool34
0,left,1,1.1848,ST,medium,6,Q479YcpCNr,pool34
1,right,1,1.1394,ST,medium,7,Q479YcpCNr,pool34
0,left,1,0.8325,ST,medium,8,Q479YcpCNr,pool34
0,left,1,0.8891,ST,medium,9,Q479YcpCNr,pool34
1,right,1,1.2077,ST,medium,10,Q479YcpCNr,pool34
1,right,1,3.6007,ST,medium,11,Q479YcpCNr,pool34
1,right,1,1.2127,ST,medium,12,Q479YcpCNr,pool34
1,right,1,1.5575,ST,medium,13,Q479YcpCNr,pool34
1,right,1,1.424,ST,medium,14,Q479YcpCNr,pool34
1,right,1,0.6931,ST,medium,15,Q479YcpCNr,pool34
0,left,1,0.8159,ST,medium,16,Q479YcpCNr,pool34
1,right,1,0.593,ST,easy,1,vBoSbHJ7AD,pool34
1,right,1,0.695,ST,easy,2,vBoSbHJ7AD,pool34
1,right,1,0.656,ST,easy,3,vBoSbHJ7AD,pool34
1,right,1,0.618,ST,easy,4,vBoSbHJ7AD,pool34
0,left,1,1.042,ST,easy,5,vBoSbHJ7AD,pool34
0,left,1,0.694,ST,easy,6,vBoSbHJ7AD,pool34
0,left,1,0.846,ST,easy,7,vBoSbHJ7AD,pool34
1,right,1,0.86,ST,easy,8,vBoSbHJ7AD,pool34
0,left,1,2.076,ST,easy,9,vBoSbHJ7AD,pool34
1,right,1,0.828,ST,easy,10,vBoSbHJ7AD,pool34
1,right,1,0.744,ST,easy,11,vBoSbHJ7AD,pool34
0,left,1,1.163,ST,easy,12,vBoSbHJ7AD,pool34
1,right,1,0.678,ST,easy,13,vBoSbHJ7AD,pool34
1,right,1,0.86,ST,easy,14,vBoSbHJ7AD,pool34
0,left,1,0.644,ST,easy,15,vBoSbHJ7AD,pool34
0,left,1,0.796,ST,easy,16,vBoSbHJ7AD,pool34
1,right,1,2.655,ST,hard,1,vBoSbHJ7AD,pool34
0,left,1,1.372,ST,hard,2,vBoSbHJ7AD,pool34
1,left,0,1.455,ST,hard,3,vBoSbHJ7AD,pool34
1,right,1,1.645,ST,hard,4,vBoSbHJ7AD,pool34
0,left,1,1.246,ST,hard,5,vBoSbHJ7AD,pool34
1,left,0,2.718,ST,hard,6,vBoSbHJ7AD,pool34
1,right,1,1.42,ST,hard,7,vBoSbHJ7AD,pool34
0,left,1,2.046,ST,hard,8,vBoSbHJ7AD,pool34
1,left,0,4.295,ST,hard,9,vBoSbHJ7AD,pool34
1,right,1,1.143,ST,hard,10,vBoSbHJ7AD,pool34
1,left,0,1.393,ST,hard,11,vBoSbHJ7AD,pool34
1,right,1,1.096,ST,hard,12,vBoSbHJ7AD,pool34
1,right,1,1.604,ST,hard,13,vBoSbHJ7AD,pool34
0,left,1,1.312,ST,hard,14,vBoSbHJ7AD,pool34
1,right,1,1.194,ST,hard,15,vBoSbHJ7AD,pool34
0,left,1,1.011,ST,hard,16,vBoSbHJ7AD,pool34
0,right,0,2.6,ST,medium,1,vBoSbHJ7AD,pool34
0,left,1,1.937,ST,medium,2,vBoSbHJ7AD,pool34
0,left,1,0.831,ST,medium,3,vBoSbHJ7AD,pool34
0,left,1,1.367,ST,medium,4,vBoSbHJ7AD,pool34
1,left,0,0.818,ST,medium,5,vBoSbHJ7AD,pool34
1,right,1,0.901,ST,medium,6,vBoSbHJ7AD,pool34
1,right,1,1.702,ST,medium,7,vBoSbHJ7AD,pool34
0,left,1,0.914,ST,medium,8,vBoSbHJ7AD,pool34
0,left,1,0.847,ST,medium,9,vBoSbHJ7AD,pool34
0,left,1,1.397,ST,medium,10,vBoSbHJ7AD,pool34
0,left,1,0.897,ST,medium,11,vBoSbHJ7AD,pool34
1,right,1,1.159,ST,medium,12,vBoSbHJ7AD,pool34
1,right,1,0.712,ST,medium,13,vBoSbHJ7AD,pool34
1,left,0,2.151,ST,medium,14,vBoSbHJ7AD,pool34
0,left,1,1.206,ST,medium,15,vBoSbHJ7AD,pool34
1,right,1,2.842,ST,medium,16,vBoSbHJ7AD,pool34
0,left,1,1.3133,ST,easy,1,JIY5GSm8aI,pool34
1,right,1,1.1816,ST,easy,2,JIY5GSm8aI,pool34
1,right,1,1.1173,ST,easy,3,JIY5GSm8aI,pool34
1,right,1,1.052,ST,easy,4,JIY5GSm8aI,pool34
0,left,1,1.2157,ST,easy,5,JIY5GSm8aI,pool34
0,left,1,1.1353,ST,easy,6,JIY5GSm8aI,pool34
0,left,1,0.8813,ST,easy,7,JIY5GSm8aI,pool34
1,right,1,1.0325,ST,easy,8,JIY5GSm8aI,pool34
0,left,1,1.2494,ST,easy,9,JIY5GSm8aI,pool34
0,left,1,0.8979,ST,easy,10,JIY5GSm8aI,pool34
0,left,1,0.8695,ST,easy,11,JIY5GSm8aI,pool34
